#Time since start in ms ,GYROSCOPE X (°/s),GYROSCOPE Y (°/s),GYROSCOPE Z (°/s),Heading direction (°)
0,0.37,-0.79,1.04,36.89
18,0.37,-0.79,1.04,36.89
37,0.37,-0.79,1.04,36.89
58,0.37,-0.79,1.04,37.98
78,0.37,-0.98,0.49,37.98
99,0.37,-0.98,0.49,37.98
117,0.37,-0.98,0.49,37.98
137,-0.3,2.44,-0.06,37.98
159,-0.3,2.44,-0.06,34.44
183,-0.3,2.44,-0.06,34.44
199,0.61,-0.31,-0.24,34.44
217,0.61,-0.31,-0.24,35.44
237,0.61,-0.31,-0.24,35.44
258,0.61,-0.31,-0.24,35.44
277,-0.67,-0.85,-0.55,34.01
298,-0.67,-0.85,-0.55,34.01
318,-0.67,-0.85,-0.55,34.67
338,-0.3,-0.67,-0.61,34.67
357,-0.3,-0.67,-0.61,34.67
378,-0.3,-0.67,-0.61,34.67
398,-0.43,-0.18,-1.16,34.67
418,-0.43,-0.18,-1.16,34.67
437,-0.43,-0.18,-1.16,37.88
457,-0.43,-0.18,-1.16,37.88
477,0.92,1.28,-0.73,37.88
502,0.92,1.28,-0.73,36.36
517,0.92,1.28,-0.73,36.36
537,-0.55,-0.49,-1.52,36.31
557,-0.55,-0.49,-1.52,36.31
578,-0.55,-0.49,-1.52,36.31
597,0.24,0.73,-0.85,34.88
618,0.24,0.73,-0.85,34.88
638,0.24,0.73,-0.85,34.88
657,0.24,0.73,-0.85,34.88
677,1.53,0.98,-1.95,34.88
697,1.53,0.98,-1.95,34.37
718,1.53,0.98,-1.95,34.37
738,1.16,0.67,2.56,34.37
758,1.16,0.67,2.56,37.97
777,1.16,0.67,2.56,37.97
797,-1.04,-0.98,-1.95,38
818,-1.04,-0.98,-1.95,38
838,-1.04,-0.98,-1.95,38
858,-1.04,-0.98,-1.95,37.93
879,0.43,0.61,1.47,37.93
897,0.43,0.61,1.47,37.93
919,0.43,0.61,1.47,37.93
937,-0.91,-0.55,0.37,37.93
958,-0.91,-0.55,0.37,37.93
977,-0.91,-0.55,0.37,35.03
997,-0.91,-0.55,0.37,35.03
1019,0.85,-0.49,-1.16,38.42
1037,0.85,-0.49,-1.16,38.42
1057,0.85,-0.49,-1.16,38.42
1079,-0.55,0.49,0,38.37
1097,-0.55,0.49,0,38.37
1121,-0.55,0.49,0,36.43
1138,2.69,1.4,-0.06,36.43
1157,2.69,1.4,-0.06,36.43
1177,2.69,1.4,-0.06,36.43
1198,2.69,1.4,-0.06,36.43
1220,-1.04,-0.49,0.24,36.43
1238,-1.04,-0.49,0.24,37.84
1257,-1.04,-0.49,0.24,37.84
1277,-0.3,-0.31,0.61,37.84
1297,-0.3,-0.31,0.61,36.32
1320,-0.3,-0.31,0.61,36.32
1337,-1.22,0.12,0.43,36.3
1357,-1.22,0.12,0.43,36.3
1378,-1.22,0.12,0.43,36.3
1397,-1.22,0.12,0.43,37.82
1421,2.69,-0.55,0.43,37.82
1438,2.69,-0.55,0.43,37.82
1458,2.69,-0.55,0.43,37.82
1477,-1.77,-0.18,-0.79,37.82
1498,-1.77,-0.18,-0.79,34.11
1517,-1.77,-0.18,-0.79,34.11
1539,1.28,0.43,1.04,34.11
1557,1.28,0.43,1.04,37.7
1578,1.28,0.43,1.04,37.7
1598,1.28,0.43,1.04,37.7
1617,-2.32,-1.53,1.04,35.61
1638,-2.32,-1.53,1.04,35.61
1657,-2.32,-1.53,1.04,36.12
1677,2.44,0.67,-0.31,36.12
1697,2.44,0.67,-0.31,36.12
1718,2.44,0.67,-0.31,36.12
1739,0.37,0.85,0.18,36.12
1758,0.37,0.85,0.18,36.12
1778,0.37,0.85,0.18,35.07
1798,0.37,0.85,0.18,35.07
1817,-1.22,2.14,0.79,35.47
1839,-1.22,2.14,0.79,35.47
1857,-1.22,2.14,0.79,35.47
1877,-0.43,0.18,-0.67,34.11
1897,-0.43,0.18,-0.67,34.11
1917,-0.43,0.18,-0.67,34.11
1939,0.12,-0.43,0.49,35.13
1957,0.12,-0.43,0.49,35.13
1977,0.12,-0.43,0.49,35.13
1997,0.12,-0.43,0.49,35.13
2017,-0.98,-0.49,-1.22,35.13
2039,-0.98,-0.49,-1.22,36.54
2057,-0.98,-0.49,-1.22,36.54
2077,-0.61,0.67,-0.18,36.54
2097,-0.61,0.67,-0.18,34.08
2117,-0.61,0.67,-0.18,34.08
2137,-0.37,0.85,0.06,38.58
2157,-0.37,0.85,0.06,38.58
2177,-0.37,0.85,0.06,38.58
2197,-0.37,0.85,0.06,33.09
2217,1.53,0.67,0.79,33.09
2238,1.53,0.67,0.79,33.09
2260,1.53,0.67,0.79,33.09
2278,1.53,0.67,0.79,33.09
2298,-0.12,0.73,-0.18,33.09
2318,-0.12,0.73,-0.18,31.16
2340,3.17,-1.95,0.43,31.16
2358,3.17,-1.95,0.43,34.83
2378,3.17,-1.95,0.43,34.83
2397,3.17,-1.95,0.43,34.83
2417,-4.94,0.24,-3.11,36.51
2437,-4.94,0.24,-3.11,36.51
2459,-4.94,0.24,-3.11,36.51
2477,-2.56,0.85,-4.09,36.31
2497,-2.56,0.85,-4.09,36.31
2517,-2.56,0.85,-4.09,36.31
2537,-2.56,0.85,-4.09,36.31
2558,-0.43,-5.07,-5.74,36.31
2577,-0.43,-5.07,-5.74,35.38
2597,-0.43,-5.07,-5.74,35.38
2617,1.28,-0.24,-3.91,35.38
2637,1.28,-0.24,-3.91,32.97
2658,1.28,-0.24,-3.91,32.97
2677,-1.04,1.4,-2.2,32.97
2697,-1.04,1.4,-2.2,32.97
2718,-1.04,1.4,-2.2,32.97
2738,-1.04,1.4,-2.2,33.24
2758,-2.62,3.72,0.73,33.24
2777,-2.62,3.72,0.73,33.24
2798,-2.62,3.72,0.73,33.24
2819,-4.21,0.61,-1.04,33.24
2838,-4.21,0.61,-1.04,36.93
2859,-4.21,0.61,-1.04,36.93
2877,-6.53,0.55,-0.12,36.93
2897,-6.53,0.55,-0.12,33.6
2917,-6.53,0.55,-0.12,33.6
2938,-6.53,0.55,-0.12,33.6
2961,-7.69,-4.7,-4.21,32.92
2977,-7.69,-4.7,-4.21,32.92
2998,-7.69,-4.7,-4.21,32.92
3018,-2.62,0.37,0.43,34.4
3038,-2.62,0.37,0.43,34.4
3058,-2.62,0.37,0.43,34.4
3078,2.07,2.2,5.68,34.4
3097,2.07,2.2,5.68,34.4
3118,2.07,2.2,5.68,34.57
3137,2.07,2.2,5.68,34.57
3158,4.39,2.56,10.99,34.24
3177,4.39,2.56,10.99,34.24
3197,4.39,2.56,10.99,34.24
3217,5.86,-4.09,10.56,33.09
3238,5.86,-4.09,10.56,33.09
3258,5.86,-4.09,10.56,33.09
3277,5.25,-0.12,21.55,31.76
3297,5.25,-0.12,21.55,31.76
3318,5.25,-0.12,21.55,31.76
3337,5.25,-0.12,21.55,31.76
3358,-3.97,1.53,11.17,31.76
3377,-3.97,1.53,11.17,28.95
3397,-3.97,1.53,11.17,28.95
3418,-2.93,-5.31,2.99,28.95
3438,-2.93,-5.31,2.99,31.87
3457,-2.93,-5.31,2.99,31.87
3477,-10.07,-0.12,1.83,31.87
3497,-10.07,-0.12,1.83,32.98
3517,-10.07,-0.12,1.83,32.98
3538,-10.07,-0.12,1.83,32.98
3557,3.42,6.47,-2.68,32.98
3577,3.42,6.47,-2.68,32.98
3598,3.42,6.47,-2.68,29.62
3617,16.48,7.75,-3.11,29.62
3637,16.48,7.75,-3.11,26.65
3657,16.48,7.75,-3.11,26.65
3677,8.85,-1.71,-10.07,26.65
3698,8.85,-1.71,-10.07,29.52
3718,8.85,-1.71,-10.07,29.52
3738,8.85,-1.71,-10.07,29.52
3757,9.58,5.61,-11.11,29.31
3778,9.58,5.61,-11.11,29.31
3798,9.58,5.61,-11.11,29.31
3819,8.73,8.67,2.5,29.31
3838,8.73,8.67,2.5,29.31
3858,8.73,8.67,2.5,31.13
3879,-7.02,2.32,-0.79,31.13
3898,-7.02,2.32,-0.79,31.13
3918,-7.02,2.32,-0.79,29.08
3937,-7.02,2.32,-0.79,29.08
3958,-10.8,-1.46,-1.16,29.08
3978,-10.8,-1.46,-1.16,29.08
3997,-10.8,-1.46,-1.16,29.08
4017,-4.46,4.15,-4.76,32.47
4037,-4.46,4.15,-4.76,32.47
4057,-4.46,4.15,-4.76,32.47
4077,5.13,5.31,-5.8,32.47
4098,5.13,5.31,-5.8,32.47
4117,5.13,5.31,-5.8,32.47
4137,5.13,5.31,-5.8,31.21
4157,1.1,3.17,2.69,31.21
4177,1.1,3.17,2.69,29.25
4198,1.1,3.17,2.69,29.25
4218,10.07,-1.04,8.73,29.25
4237,10.07,-1.04,8.73,29.25
4257,10.07,-1.04,8.73,29.25
4279,-14.28,-5.19,15.01,26.21
4297,-14.28,-5.19,15.01,26.21
4317,-14.28,-5.19,15.01,26.21
4338,-14.28,-5.19,15.01,26.21
4357,10.01,-0.12,-1.71,26.21
4377,10.01,-0.12,-1.71,26.21
4398,10.01,-0.12,-1.71,23.93
4425,10.01,-0.12,-1.71,23.93
4438,10.01,-0.12,-1.71,23.93
4465,10.01,-0.12,-1.71,23.93
4480,-5.68,5.13,3.3,27.26
4532,-5.68,5.13,3.3,27.26
4533,-5.68,5.13,3.3,27.26
4539,-5.68,5.13,3.3,27.26
4557,8,-1.53,-1.59,26.54
4577,8,-1.53,-1.59,26.54
4597,8,-1.53,-1.59,26.54
4617,2.56,-2.56,-5.67,26.54
4637,2.56,-2.56,-5.67,26.54
4658,2.56,-2.56,-5.67,29.07
4677,2.56,-2.56,-5.67,29.07
4697,15.56,2.26,-12.21,29.07
4718,15.56,2.26,-12.21,24.7
4737,15.56,2.26,-12.21,24.7
4758,15.56,2.26,-12.21,24.7
4778,-6.16,5.74,-2.44,25.32
4797,-6.16,5.74,-2.44,25.32
4817,-6.16,5.74,-2.44,25.32
4837,4.27,-3.66,-16.05,24.05
4858,4.27,-3.66,-16.05,24.05
4878,4.27,-3.66,-16.05,24.05
4897,-8.18,-1.04,-5.43,24.05
4921,-8.18,-1.04,-5.43,24.05
4937,-8.18,-1.04,-5.43,24
4959,-10.92,-0.31,3.54,24
4977,-10.92,-0.31,3.54,26.17
4998,-10.92,-0.31,3.54,26.17
5018,-0.61,2.62,-1.34,26.17
5037,-0.61,2.62,-1.34,25.44
5057,-0.61,2.62,-1.34,25.44
5077,-0.61,2.62,-1.34,25.44
5098,1.16,1.34,7.39,25.96
5117,1.16,1.34,7.39,25.96
5137,1.16,1.34,7.39,25.96
5157,-1.59,-3.66,6.9,25.96
5181,-1.59,-3.66,6.9,25.96
5199,-1.59,-3.66,6.9,23.18
5217,15.93,-1.28,3.54,23.18
5237,15.93,-1.28,3.54,23.18
5257,15.93,-1.28,3.54,24.26
5277,15.93,-1.28,3.54,24.26
5298,15.93,-1.28,3.54,24.26
5317,15.93,-1.28,3.54,24.26
5337,15.93,-1.28,3.54,24.26
5357,15.93,-1.28,3.54,24.26
5377,15.93,-1.28,3.54,24.26
5397,15.93,-1.28,3.54,24.26
5417,15.93,-1.28,3.54,24.26
5437,15.93,-1.28,3.54,24.26
5458,15.93,-1.28,3.54,24.26
5478,15.93,-1.28,3.54,24.26
5497,15.93,-1.28,3.54,24.26
5517,15.93,-1.28,3.54,24.26
5537,15.93,-1.28,3.54,24.26
5557,15.93,-1.28,3.54,24.26
5577,15.93,-1.28,3.54,24.26
5600,-0.67,-7.2,10.5,27.25
5617,-0.67,-7.2,10.5,27.25
5639,7.02,1.04,-7.75,17.88
5657,7.02,1.04,-7.75,17.88
5678,7.02,1.04,-7.75,17.88
5699,12.39,-3.42,-17.45,17.88
5717,12.39,-3.42,-17.45,17.88
5737,12.39,-3.42,-17.45,21.67
5757,12.39,-3.42,-17.45,21.67
5777,12.33,12.39,-7.45,22.97
5797,12.33,12.39,-7.45,22.97
5817,12.33,12.39,-7.45,22.97
5837,12.33,12.39,-7.45,22.97
5857,-8.48,-4.15,-5.86,23.83
5878,-8.48,-4.15,-5.86,23.83
5897,2.93,-9.09,-13.91,25.35
5917,2.93,-9.09,-13.91,25.35
5940,2.93,-9.09,-13.91,25.35
5957,2.93,-9.09,-13.91,25.35
5977,-10.01,2.32,0.92,25.35
5997,-10.01,2.32,0.92,25.35
6018,-10.01,2.32,0.92,24.17
6039,-2.87,-0.24,1.89,24.17
6057,-2.87,-0.24,1.89,19.53
6079,-2.87,-0.24,1.89,19.53
6098,2.44,-4.7,4.15,19.53
6117,2.44,-4.7,4.15,21.71
6137,2.44,-4.7,4.15,21.71
6157,2.44,-4.7,4.15,21.71
6177,4.09,-2.44,13.06,19.1
6198,4.09,-2.44,13.06,19.1
6218,4.09,-2.44,13.06,19.1
6237,11.47,0.98,18.74,19.1
6257,11.47,0.98,18.74,19.1
6277,11.47,0.98,18.74,19.31
6298,-9.22,-11.84,8.55,19.31
6317,-9.22,-11.84,8.55,19.48
6337,-9.22,-11.84,8.55,19.48
6357,-9.22,-11.84,8.55,19.48
6378,-0.24,6.96,2.69,20.62
6397,-0.24,6.96,2.69,20.62
6417,-0.24,6.96,2.69,20.62
6437,1.46,8.73,1.71,19.22
6457,1.46,8.73,1.71,19.22
6477,1.46,8.73,1.71,19.22
6498,-19.53,-0.43,4.7,19.22
6518,-19.53,-0.43,4.7,19.22
6537,-19.53,-0.43,4.7,17.48
6557,9.34,3.6,9.16,17.48
6578,9.34,3.6,9.16,17.48
6597,9.34,3.6,9.16,19.04
6618,9.34,3.6,9.16,19.04
6638,9.46,18.98,-0.49,16.58
6657,9.46,18.98,-0.49,16.58
6677,9.46,18.98,-0.49,16.58
6698,9.46,18.98,-0.49,16.58
6718,1.83,1.16,-21.36,16.41
6737,1.83,1.16,-21.36,16.41
6758,1.83,1.16,-21.36,16.41
6778,6.04,-1.34,-17.27,16.41
6797,6.04,-1.34,-17.27,16.41
6817,6.04,-1.34,-17.27,17.59
6837,-6.65,1.59,-17.03,17.59
6858,-6.65,1.59,-17.03,20.25
6878,-6.65,1.59,-17.03,20.25
6898,-7.02,0.61,-15.56,20.25
6917,-7.02,0.61,-15.56,20.25
6938,-7.02,0.61,-15.56,20.25
6957,-7.02,0.61,-15.56,20.25
6978,-12.82,8,9.34,20.25
6998,-12.82,8,9.34,20.25
7018,-12.82,8,9.34,21.22
7038,-8.18,-2.87,3.11,21.22
7057,-8.18,-2.87,3.11,21.22
7078,-8.18,-2.87,3.11,18.17
7097,5.92,-2.81,2.2,18.17
7118,5.92,-2.81,2.2,18.17
7137,5.92,-2.81,2.2,20.01
7158,5.92,-2.81,2.2,20.01
7179,11.9,12.57,15.69,20.01
7198,11.9,12.57,15.69,20.01
7217,11.9,12.57,15.69,20.01
7238,4.94,0.79,12.63,20.01
7258,4.94,0.79,12.63,20.01
7277,4.94,0.79,12.63,20.01
7297,4.94,0.79,12.63,16.92
7317,3.05,-15.75,7.45,16.92
7338,3.05,-15.75,7.45,16.92
7357,3.05,-15.75,7.45,17.26
7377,0.79,-6.23,5.07,17.26
7398,0.79,-6.23,5.07,18.26
7419,0.79,-6.23,5.07,18.26
7438,0.79,-6.23,5.07,18.26
7458,1.53,-1.77,2.56,18.01
7479,1.53,-1.77,2.56,18.01
7498,1.53,-1.77,2.56,18.01
7518,-11.35,0.91,4.09,18.01
7537,-11.35,0.91,4.09,18.01
7557,-11.35,0.91,4.09,20.51
7577,0.49,-1.34,-2.38,20.51
7597,0.49,-1.34,-2.38,17.28
7617,0.49,-1.34,-2.38,17.28
7638,-3.3,-6.23,-6.96,17.28
7657,-3.3,-6.23,-6.96,17.28
7677,-3.3,-6.23,-6.96,17.68
7697,-2.26,-12.33,-9.7,17.68
7717,-2.26,-12.33,-9.7,17.68
7737,-2.26,-12.33,-9.7,19.69
7757,-2.26,-12.33,-9.7,19.69
7777,10.13,-0.85,-18.98,19.69
7797,10.13,-0.85,-18.98,19.69
7817,10.13,-0.85,-18.98,19.69
7838,13.49,21.3,-11.17,19.03
7860,13.49,21.3,-11.17,19.03
7879,13.49,21.3,-11.17,21.88
7897,9.09,0.49,-11.35,21.88
7918,9.09,0.49,-11.35,21.88
7938,9.09,0.49,-11.35,21.88
7959,9.09,0.49,-11.35,23.2
7977,-6.41,-8.48,-11.72,23.2
7998,-6.41,-8.48,-11.72,24.76
8017,-6.41,-8.48,-11.72,24.76
8039,-6.41,-8.48,-11.72,24.76
8058,-9.34,-2.56,0.79,24.76
8078,-9.34,-2.56,0.79,24.76
8097,-4.76,5.31,2.08,22.85
8118,-4.76,5.31,2.08,22.85
8138,-4.76,5.31,2.08,22.85
8157,-4.76,5.31,2.08,22.23
8179,-1.22,2.5,1.47,22.23
8198,-1.22,2.5,1.47,24.01
8218,-1.22,2.5,1.47,24.01
8237,-4.88,-4.94,8.85,24.01
8257,-4.88,-4.94,8.85,24.01
8278,-4.88,-4.94,8.85,24.01
8297,-4.88,-4.94,8.85,24.01
8318,15.81,1.46,8.67,24.01
8338,15.81,1.46,8.67,24.01
8358,15.81,1.46,8.67,23.46
8377,2.81,0.31,17.21,23.46
8398,2.81,0.31,17.21,23.46
8417,2.81,0.31,17.21,19.72
8438,3.17,-0.79,3.97,19.72
8457,3.17,-0.79,3.97,19.72
8480,3.17,-0.79,3.97,19.13
8498,3.17,-0.79,3.97,19.13
8517,0.43,6.1,5.43,19.13
8538,0.43,6.1,5.43,19.13
8557,0.43,6.1,5.43,19.13
8579,-10.44,8.42,12.02,20.87
8598,-10.44,8.42,12.02,20.87
8618,-10.44,8.42,12.02,20.87
8637,-41.02,-18.62,0.86,20.87
8657,-41.02,-18.62,0.86,20.87
8678,-41.02,-18.62,0.86,20.87
8698,-41.02,-18.62,0.86,19.68
8717,-1.46,-5,3.23,19.68
8737,-1.46,-5,3.23,21.43
8757,-1.46,-5,3.23,21.43
8778,-1.46,-5,3.23,21.43
8798,-2.87,-5.92,-10.07,23.09
8817,-2.87,-5.92,-10.07,23.09
8839,24.72,1.34,-10.01,23.09
8858,24.72,1.34,-10.01,23.09
8879,24.72,1.34,-10.01,23.09
8897,24.72,1.34,-10.01,24.93
8918,0.73,7.51,-0.79,24.93
8938,0.73,7.51,-0.79,24.93
8957,0.73,7.51,-0.79,24.12
8977,0.73,7.51,-0.79,24.12
8997,11.9,4.94,-12.51,24.51
9018,11.9,4.94,-12.51,24.51
9037,11.9,4.94,-12.51,24.51
9057,0.61,0,-5.86,26.23
9078,0.61,0,-5.86,26.23
9098,-3.11,4.03,-1.04,26.23
9120,-3.11,4.03,-1.04,26.23
9138,-3.11,4.03,-1.04,26.23
9158,-3.11,4.03,-1.04,26.23
9177,-3.11,4.03,-1.04,20.17
9198,-2.14,9.58,-11.53,20.17
9218,-2.14,9.58,-11.53,23.92
9237,-2.14,9.58,-11.53,23.92
9257,-2.2,3.17,0.55,23.92
9277,-2.2,3.17,0.55,24.2
9297,-2.2,3.17,0.55,24.2
9317,3.05,-1.59,9.09,21
9337,3.05,-1.59,9.09,21
9357,3.05,-1.59,9.09,21
9377,16.24,9.28,8.55,21
9398,16.24,9.28,8.55,21
9418,16.24,9.28,8.55,21
9438,-0.98,-4.64,15.38,22.58
9458,-0.98,-4.64,15.38,22.58
9477,-0.98,-4.64,15.38,21.69
9498,-0.98,-4.64,15.38,21.69
9517,-1.34,-9.52,7.26,21.69
9537,-1.34,-9.52,7.26,18.48
9557,-1.34,-9.52,7.26,18.48
9579,0.61,5.07,3.97,18.48
9599,0.61,5.07,3.97,20.35
9617,0.61,5.07,3.97,20.35
9637,0.61,5.07,3.97,20.35
9659,-2.87,9.7,3.97,20.35
9677,-2.87,9.7,3.97,20.35
9697,-2.87,9.7,3.97,23.51
9717,-4.64,-4.58,-3.42,23.51
9737,-4.64,-4.58,-3.42,23.51
9758,-4.64,-4.58,-3.42,23.18
9777,5.19,5,0.06,23.18
9797,5.19,5,0.06,20.46
9818,5.19,5,0.06,20.46
9838,5.19,5,0.06,20.46
9857,8.79,2.5,0.18,22.31
9877,8.79,2.5,0.18,22.31
9898,8.79,2.5,0.18,22.31
9918,-2.87,-8.73,-7.75,22.31
9937,-2.87,-8.73,-7.75,22.31
9957,-2.87,-8.73,-7.75,22.31
9978,9.09,-1.65,-14.22,19.06
9998,9.09,-1.65,-14.22,19.06
10018,9.09,-1.65,-14.22,21.62
10041,9.09,-1.65,-14.22,21.62
10057,3.17,1.46,-1.22,21.62
10078,3.17,1.46,-1.22,18.76
10097,3.17,1.46,-1.22,18.76
10118,-2.01,-2.62,-12.76,18.76
10137,-2.01,-2.62,-12.76,19.58
10158,-2.01,-2.62,-12.76,19.58
10178,-9.64,-1.04,-12.27,19.58
10197,-9.64,-1.04,-12.27,19.58
10217,-9.64,-1.04,-12.27,19.58
10238,-9.64,-1.04,-12.27,19.8
10257,-23.25,-6.29,-8.97,19.8
10277,-23.25,-6.29,-8.97,23.25
10297,-23.25,-6.29,-8.97,23.25
10318,7.51,5.92,1.22,23.25
10338,7.51,5.92,1.22,22.89
10357,7.51,5.92,1.22,22.89
10380,1.65,0.79,12.94,22.89
10397,1.65,0.79,12.94,21.92
10418,1.65,0.79,12.94,21.92
10438,1.65,0.79,12.94,21.92
10457,-0.79,1.4,8.06,21.92
10478,-0.79,1.4,8.06,21.92
10498,-0.79,1.4,8.06,23.7
10517,-0.24,-8.55,-0.18,23.7
10537,-0.24,-8.55,-0.18,23.7
10557,-0.24,-8.55,-0.18,21.1
10577,-9.58,-10.25,9.28,21.1
10599,-9.58,-10.25,9.28,20.55
10618,-9.58,-10.25,9.28,20.55
10638,-9.58,-10.25,9.28,20.55
10658,13.85,4.15,8.36,20.55
10677,13.85,4.15,8.36,20.55
10697,13.85,4.15,8.36,20.55
10718,8,-1.89,2.87,20.55
10737,8,-1.89,2.87,20.55
10757,8,-1.89,2.87,20.55
10778,8,-1.89,2.87,20.09
10798,-15.07,2.07,6.16,20.09
10818,-15.07,2.07,6.16,19.88
10838,-15.07,2.07,6.16,19.88
10858,8,7.75,1.4,19.88
10880,8,7.75,1.4,20.48
10897,8,7.75,1.4,20.48
10917,-4.76,-4.09,-0.79,21.41
10938,-4.76,-4.09,-0.79,21.41
10958,-4.76,-4.09,-0.79,21.41
10977,1.34,-6.84,-9.52,21.41
10997,1.34,-6.84,-9.52,21.41
11017,1.34,-6.84,-9.52,21.41
11038,1.34,-6.84,-9.52,20.46
11058,17.15,8.48,-5.13,20.46
11077,17.15,8.48,-5.13,20.46
11098,17.15,8.48,-5.13,20.46
11118,-0.55,7.51,-7.57,20.52
11137,-0.55,7.51,-7.57,20.52
11157,-0.55,7.51,-7.57,22.13
11177,2.87,-4.03,-13.43,22.13
11197,2.87,-4.03,-13.43,20.14
11217,2.87,-4.03,-13.43,20.14
11238,2.87,-4.03,-13.43,20.14
11258,2.87,-4.03,-13.43,20.14
11278,2.07,1.59,-5.98,20.14
11297,2.07,1.59,-5.98,20.14
11317,2.07,1.59,-5.98,20.14
11337,-12.51,-2.32,-3.91,22.18
11358,-12.51,-2.32,-3.91,19.96
11377,-12.51,-2.32,-3.91,19.96
11397,-1.04,-5.37,-9.4,19.96
11417,-1.04,-5.37,-9.4,19.96
11438,-1.04,-5.37,-9.4,19.96
11457,-1.04,-5.37,-9.4,19.96
11477,-1.04,-5.37,-9.4,19.96
11498,-1.04,-5.37,-9.4,19.96
11518,-1.04,-5.37,-9.4,19.96
11538,-1.04,-5.37,-9.4,19.96
11558,-1.04,-5.37,-9.4,19.96
11578,-1.04,-5.37,-9.4,19.96
11598,-1.04,-5.37,-9.4,19.96
11618,-1.04,-5.37,-9.4,19.96
11637,-1.04,-5.37,-9.4,19.96
11657,-1.04,-5.37,-9.4,19.96
11684,-1.04,-5.37,-9.4,19.96
11698,-1.04,-5.37,-9.4,19.96
11718,-1.04,-5.37,-9.4,19.96
11739,-5.13,0.67,6.1,19.57
11757,-5.13,0.67,6.1,19.57
11778,-5.13,0.67,6.1,19.57
11797,5.19,1.53,7.26,19.33
11817,5.19,1.53,7.26,19.33
11837,5.19,1.53,7.26,14.81
11857,-12.08,6.83,8.36,14.81
11878,-12.08,6.83,8.36,14.81
11897,-12.08,6.83,8.36,14.81
11917,-12.08,6.83,8.36,14.81
11937,2.93,0.73,3.42,15.89
11957,2.93,0.73,3.42,15.89
11982,2.93,0.73,3.42,12.57
12002,-6.41,-3.78,0.73,12.57
12017,-6.41,-3.78,0.73,12.57
12037,-6.41,-3.78,0.73,12.57
12057,0.49,-2.14,-10.01,20.86
12078,0.49,-2.14,-10.01,20.86
12098,0.49,-2.14,-10.01,17.84
12117,14.89,4.64,-18,17.84
12138,14.89,4.64,-18,17.84
12160,14.89,4.64,-18,18.99
12177,14.89,4.64,-18,18.99
12198,14.89,4.64,-18,18.99
12217,0.43,12.57,-2.87,21.14
12237,0.43,12.57,-2.87,21.14
12258,-1.77,-5.49,-13.67,21.14
12277,-1.77,-5.49,-13.67,21.14
12298,-1.77,-5.49,-13.67,21.14
12317,-1.77,-5.49,-13.67,21.14
12337,3.23,0.61,-2.44,15.34
12359,3.23,0.61,-2.44,15.34
12377,3.23,0.61,-2.44,18.17
12397,-11.47,4.03,7.57,18.17
12417,-11.47,4.03,7.57,18.17
12437,-11.47,4.03,7.57,17.9
12459,-3.91,-3.97,-12.69,17.9
12477,-3.91,-3.97,-12.69,14.46
12497,-3.91,-3.97,-12.69,14.46
12517,-3.91,-3.97,-12.69,14.46
12537,-6.71,1.46,2.44,14.46
12557,-6.71,1.46,2.44,14.46
12577,-6.71,1.46,2.44,14.46
12597,-0.12,0.98,4.21,17.57
12617,-0.12,0.98,4.21,17.57
12638,-0.12,0.98,4.21,18.98
12657,1.77,5.13,9.09,18.98
12677,1.77,5.13,9.09,18.98
12697,1.77,5.13,9.09,18.85
12718,1.77,5.13,9.09,18.85
12737,1.77,5.13,9.09,18.85
12757,1.77,-10.25,3.54,14.91
12778,1.77,-10.25,3.54,14.91
12797,0.92,-8.67,15.93,14.91
12817,0.92,-8.67,15.93,14.91
12838,0.92,-8.67,15.93,14.91
12857,0.92,-8.67,15.93,14.91
12877,3.6,-2.44,13.25,12.74
12897,3.6,-2.44,13.25,12.74
12918,3.6,-2.44,13.25,9.16
12937,-12.63,3.54,5.07,9.16
12965,-12.63,3.54,5.07,3.83
12977,-12.63,3.54,5.07,3.83
13004,-12.63,3.54,5.07,3.83
13018,-14.28,-3.3,-4.21,3.83
13037,-14.28,-3.3,-4.21,3.83
13057,-14.28,-3.3,-4.21,3.83
13077,-14.28,-3.3,-4.21,3.83
13098,8.24,6.77,-6.65,6.43
13120,1.1,5,-5.8,2.29
13137,1.1,5,-5.8,2.29
13157,1.1,5,-5.8,2.29
13178,1.1,5,-5.8,0.47
13197,-6.9,-6.29,-7.32,0.47
13218,-6.9,-6.29,-7.32,0.47
13245,-6.9,-6.29,-7.32,4.54
13257,-6.9,-6.29,-7.32,4.54
13279,8.67,2.26,-8.73,24.29
13298,8.67,2.26,-8.73,24.29
13319,8.67,2.26,-8.73,24.29
13339,-1.95,4.21,-3.11,24.29
13358,-1.95,4.21,-3.11,24.29
13379,-1.95,4.21,-3.11,24.29
13398,13.61,4.58,-7.81,47.91
13417,13.61,4.58,-7.81,47.91
13437,13.61,4.58,-7.81,64.06
13457,13.61,4.58,-7.81,64.06
13477,-11.35,-12.21,-13.49,64.06
13497,-11.35,-12.21,-13.49,64.06
13517,-11.35,-12.21,-13.49,68.83
13537,0.73,15.14,0.86,68.83
13558,0.73,15.14,0.86,57.81
13577,0.73,15.14,0.86,57.81
13598,-5.61,3.78,-3.54,57.81
13618,-5.61,3.78,-3.54,57.81
13638,-5.61,3.78,-3.54,57.81
13657,-6.29,0.55,-3.66,59.14
13677,-6.29,0.55,-3.66,59.14
13699,-6.29,0.55,-3.66,59.14
13717,-6.29,0.55,-3.66,59.14
13738,0.85,3.3,8.67,52.49
13758,0.85,3.3,8.67,52.49
13781,0.85,3.3,8.67,54.58
13797,0.85,3.3,8.67,54.58
13818,5.25,0.55,7.08,62.22
13837,5.25,0.55,7.08,62.22
13857,1.89,5.8,6.29,62.22
13877,1.89,5.8,6.29,62.22
13897,1.89,5.8,6.29,62.22
13917,1.89,5.8,6.29,62.22
13937,3.48,-2.38,9.03,56.69
13959,3.48,-2.38,9.03,56.69
13978,3.48,-2.38,9.03,56.69
13998,1.59,3.66,11.84,48.34
14020,1.59,3.66,11.84,48.34
14037,1.59,3.66,11.84,56.98
14057,1.59,3.66,11.84,56.98
14078,-0.79,-2.44,7.63,56.98
14099,-0.79,-2.44,7.63,59.11
14117,-0.79,-2.44,7.63,59.11
14137,-12.08,-0.92,0.12,59.11
14158,-12.08,-0.92,0.12,59.11
14178,-12.08,-0.92,0.12,59.11
14198,-2.38,3.36,-0.18,57.09
14217,-2.38,3.36,-0.18,57.09
14237,-2.38,3.36,-0.18,57.09
14258,-2.38,3.36,-0.18,50.98
14277,3.66,-3.42,-1.16,50.98
14298,3.66,-3.42,-1.16,64.77
14318,3.66,-3.42,-1.16,64.77
14337,5.25,-1.46,-5.43,64.77
14358,5.25,-1.46,-5.43,65.83
14378,5.25,-1.46,-5.43,65.83
14398,13.67,4.15,-12.27,65.83
14417,13.67,4.15,-12.27,65.83
14439,13.67,4.15,-12.27,65.83
14458,4.03,4.52,-9.64,66.34
14478,4.03,4.52,-9.64,66.34
14499,4.03,4.52,-9.64,66.34
14517,4.03,4.52,-9.64,50.91
14537,6.9,1.89,-2.75,50.91
14557,6.9,1.89,-2.75,50.91
14578,6.9,1.89,-2.75,51.62
14597,-3.84,-2.38,-7.81,51.62
14618,-3.84,-2.38,-7.81,49.71
14638,-3.84,-2.38,-7.81,49.71
14657,-0.67,3.36,-3.84,49.71
14678,-0.67,3.36,-3.84,49.71
14701,-0.67,3.36,-3.84,49.71
14718,-0.67,3.36,-3.84,49.71
14738,-6.83,4.39,2.2,52.05
14758,-6.83,4.39,2.2,52.05
14777,-6.83,4.39,2.2,61.11
14798,-2.87,-5.43,2.14,61.11
14818,-2.87,-5.43,2.14,61.11
14837,-2.87,-5.43,2.14,63.9
14857,-2.87,-5.43,2.14,63.9
14877,5.74,-1.22,7.39,63.9
14897,5.74,-1.22,7.39,66.73
14918,5.74,-1.22,7.39,66.73
14939,5.19,2.32,10.93,66.73
14958,5.19,2.32,10.93,66.73
14977,5.19,2.32,10.93,66.73
14998,5.19,2.32,10.93,66.73
15019,9.58,2.2,15.69,72.56
15038,9.58,2.2,15.69,72.56
15057,9.58,2.2,15.69,63.22
15078,9.58,2.2,15.69,63.22
15098,-13.43,-6.9,17.58,63.22
15123,-13.43,-6.9,17.58,62.69
15137,-13.43,-6.9,17.58,62.69
15157,-6.83,-2.87,8.24,62.69
15177,-6.83,-2.87,8.24,57.42
15198,-6.83,-2.87,8.24,57.42
15217,5,7.81,6.65,57.42
15237,5,7.81,6.65,57.42
15257,5,7.81,6.65,57.42
15278,5,7.81,6.65,57.42
15297,-14.77,1.71,5.01,49.38
15318,-14.77,1.71,5.01,49.38
15338,1.22,-0.49,1.34,57.09
15358,1.22,-0.49,1.34,57.09
15377,1.22,-0.49,1.34,58.39
15397,1.22,-0.49,1.34,58.39
15419,2.44,-2.62,-3.3,58.39
15438,2.44,-2.62,-3.3,58.39
15457,2.44,-2.62,-3.3,59.96
15477,3.05,-1.16,-8.67,59.96
15497,3.05,-1.16,-8.67,59.96
15520,3.05,-1.16,-8.67,59.96
15537,3.05,-1.16,-8.67,59.96
15558,13.24,3.97,-6.47,52.3
15578,13.24,3.97,-6.47,52.3
15597,5.68,12.27,-2.68,49.47
15620,5.68,12.27,-2.68,49.47
15637,5.68,12.27,-2.68,56.37
15658,5.68,12.27,-2.68,56.37
15677,5.68,12.27,-2.68,56.37
15697,2.87,4.27,-8.42,56.15
15719,2.87,4.27,-8.42,56.15
15737,2.87,4.27,-8.42,56.15
15763,-4.7,2.38,-5.31,56.15
15778,-4.7,2.38,-5.31,56.15
15797,-4.7,2.38,-5.31,56.15
15817,-3.36,-2.14,-11.17,57.48
15838,-3.36,-2.14,-11.17,57.48
15857,-3.36,-2.14,-11.17,55.87
15877,-8.24,-1.95,-10.13,55.87
15898,-8.24,-1.95,-10.13,55.87
15917,-8.24,-1.95,-10.13,55.05
15939,5.13,-4.7,-7.93,55.05
15957,5.13,-4.7,-7.93,51.12
15977,5.13,-4.7,-7.93,51.12
15997,5.13,-4.7,-7.93,51.12
16017,5.98,-1.1,0.61,51.12
16038,5.98,-1.1,0.61,51.12
16057,5.98,-1.1,0.61,51.12
16077,5.98,-1.16,4.7,55.53
16097,5.98,-1.16,4.7,55.53
16117,5.98,-1.16,4.7,50.34
16137,8.12,-8.61,7.63,50.34
16158,8.12,-8.61,7.63,50.34
16177,8.12,-8.61,7.63,40.87
16197,8.12,-8.61,7.63,40.87
16218,-6.59,-4.76,16.48,40.87
16239,-6.59,-4.76,16.48,40.87
16257,-6.59,-4.76,16.48,40.87
16277,6.23,-3.66,1.71,40.87
16298,6.23,-3.66,1.71,50.96
16318,6.23,-3.66,1.71,50.96
16338,-3.17,0.79,8,35.6
16357,-3.17,0.79,8,35.6
16377,-3.17,0.79,8,35.6
16397,-3.17,0.79,8,32.31
16418,-16.54,0.43,8.12,32.31
16438,-16.54,0.43,8.12,32.31
16457,-16.54,0.43,8.12,29.99
16477,-1.89,-0.61,3.72,29.99
16497,-1.89,-0.61,3.72,29.99
16517,-1.89,-0.61,3.72,29.99
16537,5.55,0.61,3.36,29.99
16557,5.55,0.61,3.36,32.21
16578,5.55,0.61,3.36,32.21
16598,5.43,0.91,-5.13,27.63
16618,5.43,0.91,-5.13,27.63
16641,5.43,0.91,-5.13,27.63
16658,5.43,0.91,-5.13,23.81
16677,1.53,-2.5,-3.78,23.81
16697,1.53,-2.5,-3.78,23.81
16717,1.53,-2.5,-3.78,12.84
16738,5.07,2.01,-7.75,12.84
16758,5.07,2.01,-7.75,12.84
16778,5.07,2.01,-7.75,12.84
16797,5.07,2.01,-7.75,12.84
16817,6.59,5.25,-10.44,12.91
16837,6.59,5.25,-10.44,12.91
16858,6.59,5.25,-10.44,12.91
16877,5.31,-4.03,-16.23,12.91
16898,5.31,-4.03,-16.23,12.91
16917,5.31,-4.03,-16.23,12.91
16938,-4.27,-2.75,-13.06,4.98
16958,-4.27,-2.75,-13.06,4.98
16978,-4.27,-2.75,-13.06,13.05
16998,-4.27,-2.75,-13.06,13.05
17017,-3.11,1.16,-8.24,13.05
17038,-3.11,1.16,-8.24,13.05
17058,-3.11,1.16,-8.24,13.05
17077,-10.01,-7.38,-18.19,13.05
17097,-10.01,-7.38,-18.19,18.04
17117,-10.01,-7.38,-18.19,18.04
17137,-0.06,-12.08,-12.39,18.97
17158,-0.06,-12.08,-12.39,18.97
17178,-0.06,-12.08,-12.39,18.97
17198,-0.06,-12.08,-12.39,18.02
17218,5.98,0.06,3.42,18.02
17239,5.98,0.06,3.42,16.77
17259,5.98,0.06,3.42,16.77
17278,1.89,-2.2,2.87,16.77
17297,1.89,-2.2,2.87,16.77
17317,1.89,-2.2,2.87,16.77
17337,-0.18,2.26,6.23,16.77
17359,-0.18,2.26,6.23,18.59
17377,-0.18,2.26,6.23,18.59
17397,-0.18,2.26,6.23,18.59
17418,0.24,3.05,11.9,21.48
17438,0.24,3.05,11.9,21.48
17459,0.24,3.05,11.9,18.68
17478,4.03,-6.41,2.81,18.68
17497,4.03,-6.41,2.81,18.68
17517,4.03,-6.41,2.81,20.63
17537,4.03,-6.41,2.81,20.63
17559,0,4.58,2.75,20.63
17577,0,4.58,2.75,20.63
17598,0,4.58,2.75,20.63
17618,2.62,4.7,1.83,19.45
17637,2.62,4.7,1.83,19.45
17662,2.62,4.7,1.83,19.45
17678,-21.06,-4.21,-3.91,15.55
17698,-21.06,-4.21,-3.91,15.55
17718,-21.06,-4.21,-3.91,15.55
17737,-21.06,-4.21,-3.91,19.28
17761,-2.07,-0.67,1.89,19.28
17778,-2.07,-0.67,1.89,22.66
17798,-2.07,-0.67,1.89,22.66
17817,10.07,1.65,1.4,22.66
17837,10.07,1.65,1.4,22.66
17858,10.07,1.65,1.4,22.66
17878,3.66,-2.32,-8.3,22.66
17898,3.66,-2.32,-8.3,19.63
17917,3.66,-2.32,-8.3,19.63
17938,7.57,2.14,-9.4,21.22
17957,7.57,2.14,-9.4,21.22
17977,7.57,2.14,-9.4,21.22
17997,7.57,2.14,-9.4,21.22
18018,0.06,10.07,-7.57,21.93
18037,0.06,10.07,-7.57,21.93
18057,0.06,10.07,-7.57,21.8
18079,2.26,5.37,-9.89,21.8
18097,2.26,5.37,-9.89,21.8
18118,2.26,5.37,-9.89,21.8
18137,-3.54,-2.93,-7.32,21.8
18158,-3.54,-2.93,-7.32,19.57
18179,-3.54,-2.93,-7.32,19.57
18197,-3.54,-2.93,-7.32,19.57
18218,7.87,6.47,-4.03,21.41
18238,7.87,6.47,-4.03,21.41
18257,7.87,6.47,-4.03,21.55
18277,-13.12,-6.9,-5.92,21.55
18297,-13.12,-6.9,-5.92,21.55
18317,-13.12,-6.9,-5.92,18.77
18337,-13.12,-6.9,-5.92,18.77
18357,-5.49,-8.79,-7.45,18.77
18381,-5.49,-8.79,-7.45,18.77
18399,-5.49,-8.79,-7.45,18.77
18417,7.57,2.68,5.07,18.77
18437,7.57,2.68,5.07,22.73
18458,7.57,2.68,5.07,22.73
18477,8.67,-0.24,6.47,22.01
18498,8.67,-0.24,6.47,22.01
18518,8.67,-0.24,6.47,22.01
18538,8.67,-0.24,6.47,18.58
18558,-0.37,-2.5,9.52,18.58
18577,-0.37,-2.5,9.52,20.18
18599,-0.37,-2.5,9.52,20.18
18617,0.92,-2.87,16.6,20.18
18637,0.92,-2.87,16.6,20.18
18657,0.92,-2.87,16.6,20.18
18677,4.27,-7.14,8.18,20.18
18697,4.27,-7.14,8.18,20.31
18717,4.27,-7.14,8.18,20.31
18737,4.27,-7.14,8.18,20.31
18757,-5,-2.32,9.52,15.44
18777,-5,-2.32,9.52,15.44
18798,-5,-2.32,9.52,17.82
18818,-8.24,-0.85,3.17,17.82
18838,-8.24,-0.85,3.17,17.82
18858,-8.24,-0.85,3.17,16.25
18878,-5.68,-1.28,1.77,16.25
18900,-5.68,-1.28,1.77,16.25
18917,-5.68,-1.28,1.77,16.25
18943,10.13,0.24,-0.31,16.25
18958,10.13,0.24,-0.31,17.13
18977,10.13,0.24,-0.31,17.13
18997,10.13,0.24,-0.31,17.13
19017,3.85,-4.76,-0.79,17.67
19037,3.85,-4.76,-0.79,17.67
19058,3.85,-4.76,-0.79,17.67
19078,3.66,-5.62,-7.81,20.35
19099,3.66,-5.62,-7.81,20.35
19118,3.66,-5.62,-7.81,20.02
19138,3.66,-5.62,-7.81,20.02
19158,3.36,6.71,-10.86,20.02
19177,3.36,6.71,-10.86,20.02
19197,3.36,6.71,-10.86,20.02
19217,0.79,7.93,-6.47,20.02
19240,0.79,7.93,-6.47,23.79
19257,0.79,7.93,-6.47,23.79
19278,4.15,7.87,-7.75,24.43
19301,4.15,7.87,-7.75,24.43
19318,4.15,7.87,-7.75,24.43
19337,4.15,7.87,-7.75,24.84
19357,-5.92,-1.4,-5.86,24.84
19377,-5.92,-1.4,-5.86,24.84
19399,-5.92,-1.4,-5.86,22.9
19417,-3.3,4.7,-4.94,22.9
19437,-3.3,4.7,-4.94,22.9
19458,-3.3,4.7,-4.94,22.9
19478,-10.13,0,-10.5,22.9
19497,-10.13,0,-10.5,25.45
19517,-10.13,0,-10.5,25.45
19537,-10.13,0,-10.5,25.45
19557,-0.18,-4.21,-3.84,21.28
19577,-0.18,-4.21,-3.84,21.28
19597,-0.18,-4.21,-3.84,22.25
19618,4.82,3.54,6.41,22.25
19638,4.82,3.54,6.41,22.25
19658,4.82,3.54,6.41,21.29
19678,4.03,-0.18,4.82,21.29
19697,4.03,-0.18,4.82,21.29
19718,4.03,-0.18,4.82,21.29
19737,4.03,-0.18,4.82,21.29
19758,2.32,-1.34,7.93,21.29
19777,2.32,-1.34,7.93,20.51
19797,2.32,-1.34,7.93,20.51
19818,-3.91,-2.01,11.84,23.5
19837,-3.91,-2.01,11.84,23.5
19857,-3.91,-2.01,11.84,23.5
19877,18.62,1.65,8.48,23.07
19898,18.62,1.65,8.48,23.07
19919,18.62,1.65,8.48,18.68
19938,18.62,1.65,8.48,18.68
19958,0.85,0.79,9.09,18.68
19977,0.85,0.79,9.09,18.68
19997,0.85,0.79,9.09,18.68
20018,-11.23,-5.43,-1.59,18.68
20037,-11.23,-5.43,-1.59,19.32
20057,-11.23,-5.43,-1.59,19.32
20077,-11.23,-5.43,-1.59,19.32
20097,-2.87,2.93,7.75,19.06
20121,-2.87,2.93,7.75,19.06
20137,-2.87,2.93,7.75,23.58
20157,5.25,0.43,2.32,23.58
20179,5.25,0.43,2.32,23.58
20197,5.25,0.43,2.32,18.78
20217,2.75,0.55,-9.7,18.78
20237,2.75,0.55,-9.7,18.78
20257,2.75,0.55,-9.7,18.78
20277,2.75,0.55,-9.7,18.78
20297,3.42,0.43,-4.64,21.1
20320,3.42,0.43,-4.64,21.1
20340,3.42,0.43,-4.64,21.1
20358,-1.89,2.62,-6.9,22.11
20378,-1.89,2.62,-6.9,22.11
20398,-1.89,2.62,-6.9,22.11
20420,-1.16,4.46,-8.24,22.8
20439,-1.16,4.46,-8.24,22.8
20457,-1.16,4.46,-8.24,22.97
20477,-1.16,4.46,-8.24,22.97
20497,4.94,6.22,-10.37,22.97
20517,4.94,6.22,-10.37,22.97
20538,4.94,6.22,-10.37,22.97
20558,-6.71,4.09,-10.13,22.97
20578,-6.71,4.09,-10.13,21.71
20597,-6.71,4.09,-10.13,21.71
20617,-6.71,4.09,-10.13,21.71
20638,-2.44,0.61,-15.2,23.44
20657,-2.44,0.61,-15.2,23.44
20677,-2.44,0.61,-15.2,22.72
20697,-6.47,2.81,-14.53,22.72
20717,-6.47,2.81,-14.53,22.72
20738,-6.47,2.81,-14.53,24.22
20757,-5.8,-8.42,-18.31,24.22
20777,-5.8,-8.42,-18.31,24.22
20797,-5.8,-8.42,-18.31,24.22
20817,4.46,-3.97,-9.83,24.22
20838,4.46,-3.97,-9.83,25.15
20858,4.46,-3.97,-9.83,25.15
20878,4.46,-3.97,-9.83,25.15
20898,13.79,2.81,-3.84,24.89
20917,13.79,2.81,-3.84,24.89
20938,13.79,2.81,-3.84,28.06
20957,5.8,-2.56,-8.97,28.06
20977,5.8,-2.56,-8.97,28.06
20997,5.8,-2.56,-8.97,25.86
21018,-0.43,-5,-12.94,25.86
21039,-0.43,-5,-12.94,25.86
21063,-0.43,-5,-12.94,25.86
21078,-0.43,-5,-12.94,25.86
21098,-7.38,-9.83,-42.23,25.86
21118,-7.38,-9.83,-42.23,26.21
21137,-7.38,-9.83,-42.23,26.21
21157,7.81,-18.31,-81.66,29.29
21178,7.81,-18.31,-81.66,29.29
21197,7.81,-18.31,-81.66,29.29
21217,7.81,-18.31,-81.66,29.62
21241,-7.02,-29.11,-106.57,29.62
21259,-7.02,-29.11,-106.57,29.62
21278,-7.02,-29.11,-106.57,29.62
21299,19.29,-41.63,-152.16,29.62
21318,19.29,-41.63,-152.16,35.48
21338,19.29,-41.63,-152.16,35.48
21358,11.66,-52.31,-181.52,35.48
21378,11.66,-52.31,-181.52,38.45
21402,11.66,-52.31,-181.52,38.45
21417,0.55,-56.88,-190.73,55.68
21437,0.55,-56.88,-190.73,55.68
21457,0.55,-56.88,-190.73,55.68
21478,0.55,-56.88,-190.73,65.11
21498,-6.22,-65.92,-185.42,65.11
21517,-6.22,-65.92,-185.42,65.11
21543,-6.22,-65.92,-185.42,65.11
21560,-6.22,-65.92,-185.42,65.11
21577,1.95,-50.9,-146.54,65.11
21597,1.95,-50.9,-146.54,85.12
21617,1.95,-50.9,-146.54,85.12
21637,-8.91,-24.41,-91.73,85.12
21659,-8.91,-24.41,-91.73,93.64
21677,-8.91,-24.41,-91.73,93.64
21698,-12.21,-19.53,-54.5,99.01
21718,-12.21,-19.53,-54.5,99.01
21737,-12.21,-19.53,-54.5,110.05
21761,-12.21,-19.53,-54.5,110.05
21778,-8.67,-1.95,-23.8,110.05
21797,-8.67,-1.95,-23.8,110.05
21817,-8.67,-1.95,-23.8,110.05
21837,-5.8,2.5,-4.58,110.05
21859,-5.8,2.5,-4.58,110.2
21877,-5.8,2.5,-4.58,110.2
21897,-7.2,-0.92,-1.52,110.2
21918,-7.2,-0.92,-1.52,110.63
21937,-7.2,-0.92,-1.52,110.63
21957,-1.71,4.39,10.13,112.85
21978,-1.71,4.39,10.13,112.85
21997,-1.71,4.39,10.13,112.85
22017,-1.71,4.39,10.13,112.85
22037,1.1,5.92,11.72,110.81
22058,1.1,5.92,11.72,110.81
22077,1.1,5.92,11.72,110.81
22097,1.04,1.71,3.91,110.81
22117,1.04,1.71,3.91,110.33
22137,1.04,1.71,3.91,110.33
22157,-1.16,-5.62,3.23,110.33
22177,-1.16,-5.62,3.23,111.37
22197,-1.16,-5.62,3.23,111.37
22218,-1.16,-5.62,3.23,111.37
22237,5,0.12,5.74,107.78
22258,5,0.12,5.74,107.78
22277,5,0.12,5.74,109.03
22298,1.53,0.67,3.97,109.03
22317,1.53,0.67,3.97,109.03
22337,1.53,0.67,3.97,109.03
22357,3.85,2.38,3.85,109.03
22377,3.85,2.38,3.85,109.03
22398,3.85,2.38,3.85,107.03
22417,3.85,2.38,3.85,107.03
22437,1.71,3.17,4.46,113.99
22458,1.71,3.17,4.46,113.99
22480,1.71,3.17,4.46,113.99
22500,3.36,0.24,-0.49,109.24
22518,3.36,0.24,-0.49,109.24
22537,3.36,0.24,-0.49,109.24
22557,-2.14,0.55,-0.85,110.82
22577,-2.14,0.55,-0.85,110.82
22597,-2.14,0.55,-0.85,110.82
22617,-2.14,0.55,-0.85,110.82
22637,-3.91,-0.55,-0.61,110.82
22659,-3.91,-0.55,-0.61,109.06
22679,-3.91,-0.55,-0.61,109.06
22697,-3.91,0.31,-3.11,109.06
22717,-3.91,0.31,-3.11,109.95
22737,-3.91,0.31,-3.11,109.95
22757,-3.84,8.36,4.27,107.71
22777,-3.84,8.36,4.27,107.71
22799,-3.84,8.36,4.27,107.71
22817,-3.84,8.36,4.27,108.69
22837,-5.37,-4.09,-8.42,108.69
22857,-5.37,-4.09,-8.42,108.69
22877,-5.37,-4.09,-8.42,108.69
22897,2.62,0.98,-8.36,108.69
22919,2.62,0.98,-8.36,105.81
22937,2.62,0.98,-8.36,105.81
22957,2.62,0.98,-8.36,105.81
22977,-1.65,10.13,-2.68,107.25
22997,-1.65,10.13,-2.68,107.25
23017,-1.65,10.13,-2.68,107.25
23037,-0.37,0.31,-1.16,109.24
23057,-0.37,0.31,-1.16,109.24
23077,-0.37,0.31,-1.16,109.16
23098,1.4,-4.58,3.72,109.16
23118,1.4,-4.58,3.72,109.16
23138,1.4,-4.58,3.72,109.16
23158,8.12,5.43,15.5,109.16
23178,8.12,5.43,15.5,109.16
23199,8.12,5.43,15.5,106.61
23217,8.12,5.43,15.5,106.61
23239,-10.62,-7.93,12.76,109.56
23258,-10.62,-7.93,12.76,109.56
23277,-10.62,-7.93,12.76,109.56
23297,0,-6.71,-0.98,107.28
23317,0,-6.71,-0.98,107.28
23337,0,-6.71,-0.98,107.28
23358,11.23,-0.24,6.1,103.45
23377,11.23,-0.24,6.1,103.45
23399,11.23,-0.24,6.1,103.45
23418,11.23,-0.24,6.1,103.45
23438,-7.93,5.37,7.45,103.45
23457,-7.93,5.37,7.45,111.17
23478,-7.93,5.37,7.45,111.17
23498,2.87,1.95,-1.34,111.17
23517,2.87,1.95,-1.34,104.99
23537,2.87,1.95,-1.34,104.99
23557,2.87,1.95,-1.34,104.99
23577,-5.92,-2.69,0.61,102.22
23598,-5.92,-2.69,0.61,102.22
23619,-5.92,-2.69,0.61,102.65
23638,0.61,-3.54,-4.76,102.65
23657,0.61,-3.54,-4.76,102.65
23678,0.61,-3.54,-4.76,102.65
23698,13.73,7.63,-6.83,102.65
23718,13.73,7.63,-6.83,102.65
23738,13.73,7.63,-6.83,103.12
23757,13.73,7.63,-6.83,103.12
23777,2.38,4.58,3.48,109.55
23797,2.38,4.58,3.48,109.55
23818,2.38,4.58,3.48,109.55
23838,-5,-7.69,-7.99,107.1
23857,-5,-7.69,-7.99,107.1
23879,-5,-7.69,-7.99,107.1
23897,-5,-7.69,-7.99,106.52
23917,-10.5,-2.2,-5.31,106.52
23937,-10.5,-2.2,-5.31,106.52
23957,-10.5,-2.2,-5.31,106.52
23978,1.46,2.32,-0.06,106.52
23997,1.46,2.32,-0.06,109.14
24017,1.46,2.32,-0.06,109.14
24037,0.79,3.84,-0.49,109.14
24057,0.79,3.84,-0.49,109.14
24077,0.79,3.84,-0.49,109.14
24098,2.32,1.71,7.45,108.3
24118,2.32,1.71,7.45,108.3
24137,2.32,1.71,7.45,108.3
24158,2.32,1.71,7.45,107.98
24177,5.8,0.73,8.12,107.98
24197,5.8,0.73,8.12,107.98
24219,5.8,0.73,8.12,107.98
24237,-2.26,1.34,13.86,107.98
24257,-2.26,1.34,13.86,107.68
24277,-2.26,1.34,13.86,107.68
24297,2.87,3.05,3.72,107.68
24317,2.87,3.05,3.72,107.68
24337,2.87,3.05,3.72,107.68
24357,2.87,3.05,3.72,107.68
24378,7.2,6.47,3.72,103.95
24399,7.2,6.47,3.72,103.95
24418,7.2,6.47,3.72,105.58
24438,-7.93,2.87,-0.73,105.58
24458,-7.93,2.87,-0.73,105.58
24478,-7.93,2.87,-0.73,105.58
24498,8.61,-2.69,-6.04,105.58
24517,8.61,-2.69,-6.04,105.58
24538,8.61,-2.69,-6.04,99.97
24557,8.61,-2.69,-6.04,99.97
24577,2.01,3.48,3.97,99.97
24597,2.01,3.48,3.97,102.01
24620,2.01,3.48,3.97,102.01
24639,0.18,4.21,-4.45,103.01
24658,0.18,4.21,-4.45,103.01
24677,0.18,4.21,-4.45,103.01
24698,6.1,5.13,-5.31,107.25
24717,6.1,5.13,-5.31,107.25
24738,6.1,5.13,-5.31,107.25
24757,6.1,5.13,-5.31,107.25
24777,8.67,10.44,-4.09,107.25
24797,8.67,10.44,-4.09,105.97
24822,8.67,10.44,-4.09,105.97
24838,-1.1,1.89,-7.63,105.97
24858,-1.1,1.89,-7.63,105.54
24877,-1.1,1.89,-7.63,105.54
24897,-1.1,-0.92,-7.2,105.54
24917,-1.1,-0.92,-7.2,106.44
24941,-1.1,-0.92,-7.2,106.44
24957,-1.1,-0.92,-7.2,107.4
24977,-15.01,-7.38,-7.14,107.4
24997,-15.01,-7.38,-7.14,107.4
25020,-15.01,-7.38,-7.14,107.4
25037,2.5,-6.96,-10.99,107.4
25057,2.5,-6.96,-10.99,107.4
25078,2.5,-6.96,-10.99,105.31
25097,2.5,-6.96,-10.99,105.31
25117,4.09,3.54,6.59,107.88
25137,4.09,3.54,6.59,107.88
25157,4.09,3.54,6.59,107.88
25178,10.38,1.22,9.4,106.99
25197,10.38,1.22,9.4,106.99
25218,10.38,1.22,9.4,110.16
25237,-0.79,-6.1,7.39,110.16
25257,-0.79,-6.1,7.39,110.16
25277,-0.79,-6.1,7.39,110.16
25297,-0.79,-6.1,7.39,110.16
25317,-3.3,-4.15,18.19,110.16
25342,-3.3,-4.15,18.19,108.37
25357,-3.3,-4.15,18.19,108.37
25377,4.94,-0.67,11.66,108.37
25397,4.94,-0.67,11.66,108.37
25418,4.94,-0.67,11.66,108.37
25440,-2.87,6.41,3.05,107.49
25457,-2.87,6.41,3.05,107.49
25477,-2.87,6.41,3.05,107.49
25497,-2.87,6.41,3.05,106.24
25520,-19.84,-4.33,2.62,106.24
25538,-19.84,-4.33,2.62,106.24
25558,-19.84,-4.33,2.62,106.24
25577,3.05,3.84,2.32,106.24
25597,3.05,3.84,2.32,104.76
25617,3.05,3.84,2.32,104.76
25640,3.05,3.84,2.32,104.76
25658,0.31,0,-3.36,104.76
25677,0.31,0,-3.36,104.76
25698,0.31,0,-3.36,104.76
25717,0.61,2.56,-11.6,108.17
25740,0.61,2.56,-11.6,108.17
25758,0.61,2.56,-11.6,107.16
25777,6.53,3.48,-9.58,107.16
25797,6.53,3.48,-9.58,107.16
25817,6.53,3.48,-9.58,107.16
25837,-7.45,3.23,-1.71,107.16
25861,-7.45,3.23,-1.71,107.16
25878,-7.45,3.23,-1.71,106.88
25897,-7.45,3.23,-1.71,106.88
25917,-1.28,-4.33,-8.42,106.88
25937,-1.28,-4.33,-8.42,103.56
25959,-1.28,-4.33,-8.42,103.56
25978,-1.95,-2.99,-13.06,103.98
25997,-1.95,-2.99,-13.06,103.98
26020,-1.95,-2.99,-13.06,103.98
26038,-13.24,-0.31,-13.24,103.98
26058,-13.24,-0.31,-13.24,103.98
26078,-13.24,-0.31,-13.24,103.98
26097,-13.24,-0.31,-13.24,105.27
26117,-3.48,-11.47,-16.42,105.27
26137,-3.48,-11.47,-16.42,111.85
26157,-3.48,-11.47,-16.42,111.85
26178,7.14,1.77,1.34,111.85
26198,7.14,1.77,1.34,110.23
26217,7.14,1.77,1.34,110.23
26237,16.85,3.42,5.01,111.32
26258,16.85,3.42,5.01,111.32
26278,16.85,3.42,5.01,111.32
26297,16.85,3.42,5.01,111.32
26317,9.95,-7.08,2.81,111.32
26338,9.95,-7.08,2.81,111.32
26358,9.95,-7.08,2.81,107.88
26379,-7.26,-4.46,19.04,107.88
26398,-7.26,-4.46,19.04,107.88
26418,-7.26,-4.46,19.04,113.31
26442,-7.26,-4.46,19.04,113.31
26461,3.72,0.98,4.64,112.08
26477,3.72,0.98,4.64,112.08
26498,3.72,0.98,4.64,112.08
26517,13.55,-0.92,0.37,109.14
26537,13.55,-0.92,0.37,109.14
26559,13.55,-0.92,0.37,109.14
26577,-12.82,4.03,11.84,109.14
26597,-12.82,4.03,11.84,109.14
26617,-12.82,4.03,11.84,109.14
26637,-12.82,4.03,11.84,107.6
26657,-0.18,-3.23,1.83,107.6
26678,-0.18,-3.23,1.83,104.08
26697,-0.18,-3.23,1.83,104.08
26718,-6.22,-0.98,3.05,104.08
26738,-6.22,-0.98,3.05,102.72
26758,-6.22,-0.98,3.05,102.72
26778,4.15,0.67,-0.55,109.08
26798,4.15,0.67,-0.55,109.08
26818,4.15,0.67,-0.55,109.08
26837,4.15,0.67,-0.55,109.08
26859,0.55,3.6,-2.99,109.08
26877,0.55,3.6,-2.99,109.08
26897,0.55,3.6,-2.99,105.74
26918,-2.32,2.14,-7.32,105.74
26941,-2.32,2.14,-7.32,104.44
26957,-2.32,2.14,-7.32,104.44
26977,-2.32,2.14,-7.32,104.44
26998,5.07,-1.04,-6.65,107.36
27017,5.07,-1.04,-6.65,107.36
27037,5.07,-1.04,-6.65,107.36
27058,-6.53,-3.72,-10.86,108.58
27079,-6.53,-3.72,-10.86,108.58
27097,-6.53,-3.72,-10.86,108.58
27117,-5.31,5.43,-1.77,108.58
27137,-5.31,5.43,-1.77,108.58
27158,-5.31,5.43,-1.77,110.06
27178,-8.18,-2.62,-9.89,110.06
27197,-8.18,-2.62,-9.89,110.06
27218,-8.18,-2.62,-9.89,108.46
27238,-7.08,-5.13,-3.3,108.46
27258,-7.08,-5.13,-3.3,111.59
27279,-7.08,-5.13,-3.3,111.59
27298,-7.08,-5.13,-3.3,111.59
27318,0.79,-0.55,6.1,106.66
27338,0.79,-0.55,6.1,106.66
27358,0.79,-0.55,6.1,106.66
27380,9.03,0.24,3.91,106.66
27398,9.03,0.24,3.91,106.66
27417,9.03,0.24,3.91,106.66
27438,9.03,0.24,3.91,108.5
27457,2.62,-1.4,6.9,108.5
27479,2.62,-1.4,6.9,109.07
27497,2.62,-1.4,6.9,109.07
27518,-2.99,-6.47,11.96,109.07
27538,-2.99,-6.47,11.96,108.7
27558,-2.99,-6.47,11.96,108.7
27577,2.14,-0.37,7.63,108.75
27598,2.14,-0.37,7.63,108.75
27618,2.14,-0.37,7.63,108.75
27638,2.14,-0.37,7.63,108.75
27657,-1.59,-5.19,-1.65,108.75
27677,-1.59,-5.19,-1.65,108.75
27699,-1.59,-5.19,-1.65,107.13
27718,-21.36,-1.46,5.74,107.13
27738,-21.36,-1.46,5.74,107.13
27757,-21.36,-1.46,5.74,110.12
27778,4.88,4.39,1.47,110.12
27798,4.88,4.39,1.47,106.38
27819,4.88,4.39,1.47,106.38
27837,4.88,4.39,1.47,106.38
27857,4.09,3.78,-0.37,100.38
27879,4.09,3.78,-0.37,100.38
27898,4.09,3.78,-0.37,100.38
27918,6.41,0.43,-4.76,100.38
27938,6.41,0.43,-4.76,100.38
27957,6.41,0.43,-4.76,103.18
27978,12.39,1.1,-10.19,103.18
27999,12.39,1.1,-10.19,103.18
28017,12.39,1.1,-10.19,105.47
28038,12.39,1.1,-10.19,105.47
28058,2.75,7.38,-3.42,105.47
28078,2.75,7.38,-3.42,106.74
28098,2.75,7.38,-3.42,106.74
28119,5.8,-0.79,-7.93,105.52
28137,5.8,-0.79,-7.93,105.52
28158,5.8,-0.79,-7.93,105.52
28178,-3.36,-3.97,-3.6,105.52
28197,-3.36,-3.97,-3.6,105.52
28217,-3.36,-3.97,-3.6,105.52
28237,-3.36,-3.97,-3.6,112.08
28257,-14.95,3.05,0,112.08
28277,-14.95,3.05,0,109.92
28297,-14.95,3.05,0,109.92
28317,-7.87,-7.14,-15.69,109.92
28337,-7.87,-7.14,-15.69,105.94
28359,-7.87,-7.14,-15.69,105.94
28377,-1.71,-4.88,-0.49,105.94
28397,-1.71,-4.88,-0.49,106.17
28417,-1.71,-4.88,-0.49,106.17
28437,-1.71,-4.88,-0.49,106.17
28457,3.66,-1.34,7.57,106.17
28478,3.66,-1.34,7.57,106.17
28497,3.66,-1.34,7.57,110.42
28518,2.93,4.88,6.47,110.42
28537,2.93,4.88,6.47,110.42
28557,2.93,4.88,6.47,106.87
28581,2.93,4.88,6.47,106.87
28598,-0.73,-0.61,7.69,106.87
28618,-0.73,-0.61,7.69,109.95
28638,-0.73,-0.61,7.69,109.95
28658,4.7,-3.36,14.53,102.26
28681,4.7,-3.36,14.53,102.26
28701,4.7,-3.36,14.53,102.26
28717,2.75,1.71,6.65,102.26
28737,2.75,1.71,6.65,102.26
28758,2.75,1.71,6.65,105.29
28778,2.75,1.71,6.65,105.29
28798,-10.25,-4.21,0.79,105.29
28818,-10.25,-4.21,0.79,102.1
28838,-10.25,-4.21,0.79,102.1
28861,-5,4.03,6.23,105.58
28877,-5,4.03,6.23,105.58
28897,-5,4.03,6.23,105.58
28917,1.1,1.77,1.65,103.2
28938,1.1,1.77,1.65,103.2
28958,1.1,1.77,1.65,103.2
28978,1.1,1.77,1.65,103.2
28997,3.6,-0.55,-3.42,103.2
29019,3.6,-0.55,-3.42,103.2
29037,3.6,-0.55,-3.42,107.42
29058,12.94,3.48,-9.34,107.42
29078,12.94,3.48,-9.34,107.22
29097,12.94,3.48,-9.34,107.22
29122,12.94,3.48,-9.34,107.22
29137,2.26,12.88,-10.31,103.89
29158,2.26,12.88,-10.31,103.89
29178,2.26,12.88,-10.31,103.89
29198,11.11,-3.23,-8.85,109.85
29218,11.11,-3.23,-8.85,109.85
29237,11.11,-3.23,-8.85,109.85
29257,-2.32,2.62,-6.77,109.85
29277,-2.32,2.62,-6.77,109.85
29297,-2.32,2.62,-6.77,103.38
29318,-0.37,6.22,-2.5,103.38
29338,-0.37,6.22,-2.5,103.38
29357,-0.37,6.22,-2.5,105.24
29377,-0.37,6.22,-2.5,105.24
29400,-15.2,-3.48,-5.37,108.11
29419,-15.2,-3.48,-5.37,108.11
29438,-15.2,-3.48,-5.37,108.11
29457,-4.82,-10.38,-9.28,102.9
29477,-4.82,-10.38,-9.28,102.9
29499,-4.82,-10.38,-9.28,102.9
29520,2.99,2.2,3.97,102.9
29537,2.99,2.2,3.97,102.9
29557,2.99,2.2,3.97,102.9
29578,2.99,2.2,3.97,106.91
29597,0.61,-3.17,6.9,106.91
29617,0.61,-3.17,6.9,107.36
29637,0.61,-3.17,6.9,107.36
29657,15.44,8.61,13.67,107.36
29677,15.44,8.61,13.67,107.36
29697,15.44,8.61,13.67,107.36
29718,2.5,1.04,22.52,105.72
29738,2.5,1.04,22.52,105.72
29758,2.5,1.04,22.52,105.72
29777,2.5,1.04,22.52,105.72
29797,9.64,-5.62,9.03,105.72
29818,9.64,-5.62,9.03,105.72
29838,9.64,-5.62,9.03,100.96
29858,2.87,0.85,9.58,100.96
29878,2.87,0.85,9.58,100.96
29899,2.87,0.85,9.58,104.92
29917,2.87,0.85,9.58,104.92
29937,-5.86,4.33,9.28,105.56
29958,-5.86,4.33,9.28,105.56
29977,-5.86,4.33,9.28,105.56
29998,-4.94,5.19,7.75,97.59
30018,-4.94,5.19,7.75,97.59
30037,-4.94,5.19,7.75,97.59
30057,5.74,3.42,-4.09,97.59
30077,5.74,3.42,-4.09,97.59
30098,5.74,3.42,-4.09,100.29
30117,5.74,3.42,-4.09,100.29
30137,0.73,2.62,-5.19,100.29
30157,0.73,2.62,-5.19,107.25
30178,0.73,2.62,-5.19,107.25
30198,4.39,6.35,-4.58,107.25
30219,4.39,6.35,-4.58,113.43
30237,4.39,6.35,-4.58,113.43
30258,-1.16,4.52,-8.97,113.43
30277,-1.16,4.52,-8.97,113.43
30297,-1.16,4.52,-8.97,113.43
30317,-1.16,4.52,-8.97,116.2
30337,3.72,-0.85,-7.26,116.2
30357,3.72,-0.85,-7.26,116.2
30378,3.72,-0.85,-7.26,119.16
30397,-12.63,-5.68,-6.16,119.16
30417,-12.63,-5.68,-6.16,122.37
30438,-12.63,-5.68,-6.16,122.37
30458,-3.72,3.11,-4.33,122.37
30478,-3.72,3.11,-4.33,126.78
30498,-3.72,3.11,-4.33,126.78
30518,-3.72,3.11,-4.33,126.78
30537,-9.58,-3.36,1.4,134.62
30557,-9.58,-3.36,1.4,134.62
30577,-9.58,-3.36,1.4,134.62
30597,-9.58,-3.36,1.4,134.62
30617,-0.18,-0.67,3.72,134.62
30638,-0.18,-0.67,3.72,135.52
30658,-0.18,-0.67,3.72,135.52
30677,3.6,-4.27,9.64,135.52
30697,3.6,-4.27,9.64,136.78
30717,3.6,-4.27,9.64,136.78
30738,4.03,1.65,15.87,137.34
30757,4.03,1.65,15.87,137.34
30777,4.03,1.65,15.87,137.34
30797,2.56,4.94,12.33,137.89
30817,2.56,4.94,12.33,137.89
30837,2.56,4.94,12.33,137.89
30858,13.24,-1.95,5.37,137.89
30877,13.24,-1.95,5.37,137.89
30898,13.24,-1.95,5.37,145.26
30918,13.24,-1.95,5.37,145.26
30937,-7.45,-1.95,11.9,145.26
30958,-7.45,-1.95,11.9,153.31
30977,-7.45,-1.95,11.9,153.31
30997,-7.45,-1.95,11.9,153.31
31017,-8.54,-8.67,3.72,153.31
31037,-8.54,-8.67,3.72,159.62
31058,-11.72,2.32,1.89,159.62
31079,-11.72,2.32,1.89,159.62
31097,-11.72,2.32,1.89,159.62
31117,-11.72,2.32,1.89,158.4
31137,0.98,3.48,-0.67,158.4
31157,0.98,3.48,-0.67,158.4
31178,0.98,3.48,-0.67,154.73
31197,0.12,0.73,-5.98,154.73
31219,0.12,0.73,-5.98,154.73
31240,0.12,0.73,-5.98,154.73
31257,0.12,0.73,-5.98,157.53
31277,0.12,0.73,-5.98,157.53
31299,5.13,-1.77,-10.99,164.39
31318,5.13,-1.77,-10.99,164.39
31339,4.88,-0.12,-9.28,164.39
31357,4.88,-0.12,-9.28,164.39
31377,4.88,-0.12,-9.28,164.39
31397,4.94,6.22,-8.3,164.66
31417,4.94,6.22,-8.3,164.66
31437,4.94,6.22,-8.3,164.66
31457,4.94,6.22,-8.3,164.16
31478,-8.91,-2.01,-7.45,164.16
31497,-8.91,-2.01,-7.45,167.35
31517,-8.91,-2.01,-7.45,167.35
31537,-6.16,1.1,-7.57,167.35
31557,-6.16,1.1,-7.57,175.22
31578,-6.16,1.1,-7.57,175.22
31598,-6.16,1.1,-7.57,175.22
31618,-3.48,0.37,-5.61,175.22
31638,-3.48,0.37,-5.61,175.22
31657,-3.48,0.37,-5.61,174.27
31677,0.67,0.61,-4.21,174.27
31699,0.67,0.61,-4.21,174.27
31718,0.67,0.61,-4.21,174.56
31738,-2.56,-0.06,-1.77,174.56
31759,-2.56,-0.06,-1.77,172.38
31778,-2.56,-0.06,-1.77,172.38
31797,-2.56,-0.06,-1.77,172.38
31818,0.73,0.73,3.72,153.96
31838,0.73,0.73,3.72,153.96
31857,0.73,0.73,3.72,153.96
31877,0.73,0.73,3.72,153.96
31897,7.45,-5.07,8.97,153.96
31918,7.45,-5.07,8.97,153.96
31939,5.07,-6.04,10.07,124.82
31958,5.07,-6.04,10.07,124.82
31978,5.07,-6.04,10.07,112.75
31998,5.07,-6.04,10.07,112.75
32017,4.7,-3.42,8.79,112.75
32037,4.7,-3.42,8.79,106.77
32057,4.7,-3.42,8.79,106.77
32077,-6.22,-1.16,12.15,102.29
32098,-6.22,-1.16,12.15,102.29
32117,-6.22,-1.16,12.15,102.29
32137,-2.2,-1.22,2.99,102.29
32157,-2.2,-1.22,2.99,102.29
32177,-2.2,-1.22,2.99,102.29
32199,-2.2,-1.22,2.99,100.02
32218,-7.38,-2.38,0.18,100.02
32237,-7.38,-2.38,0.18,100.02
32258,-7.38,-2.38,0.18,100.11
32278,5.31,2.93,2.5,100.11
32297,5.31,2.93,2.5,99.22
32318,5.31,2.93,2.5,99.22
32337,5.31,2.93,2.5,99.22
32358,-0.43,0.06,-1.22,102.12
32377,-0.43,0.06,-1.22,102.12
32397,-0.43,0.06,-1.22,102.12
32417,3.78,-2.81,-6.65,102.12
32440,3.78,-2.81,-6.65,102.12
32457,3.78,-2.81,-6.65,99.66
32477,8.97,0.18,-9.15,99.66
32498,8.97,0.18,-9.15,99.66
32517,8.97,0.18,-9.15,98.25
32537,4.82,3.91,-5,98.25
32557,4.82,3.91,-5,98.94
32578,4.82,3.91,-5,98.94
32597,4.82,3.91,-5,98.94
32621,9.77,-3.11,-17.21,101.25
32639,9.77,-3.11,-17.21,101.25
32658,9.77,-3.11,-17.21,101.25
32678,-12.39,-5.31,-12.27,101.25
32698,-12.39,-5.31,-12.27,101.25
32717,-12.39,-5.31,-12.27,101.25
32737,-7.63,6.53,-3.05,98.26
32758,-7.63,6.53,-3.05,98.26
32777,-7.63,6.53,-3.05,99.95
32797,-7.63,6.53,-3.05,99.95
32817,-8.79,-4.15,-10.8,99.95
32837,-8.79,-4.15,-10.8,101.87
32857,-8.79,-4.15,-10.8,101.87
32878,6.1,-2.01,2.62,101.87
32898,6.1,-2.01,2.62,101.87
32917,6.1,-2.01,2.62,101.87
32937,6.1,-2.01,2.62,101.87
32957,7.2,0.24,11.78,101.87
32977,7.2,0.24,11.78,101.87
32999,7.2,0.24,11.78,102
33017,2.75,1.95,9.77,102
33037,2.75,1.95,9.77,102
33057,2.75,1.95,9.77,100.33
33078,-1.04,0.67,18.98,100.33
33097,-1.04,0.67,18.98,99.4
33118,-1.04,0.67,18.98,99.4
33137,-1.04,0.67,18.98,99.4
33157,4.27,-2.81,12.21,99.4
33177,4.27,-2.81,12.21,99.4
33197,4.27,-2.81,12.21,99.4
33218,-2.56,9.46,11.84,99.4
33237,-2.56,9.46,11.84,99.4
33257,-2.56,9.46,11.84,97.3
33277,-5.07,-0.85,-1.4,97.3
33297,-5.07,-0.85,-1.4,97.3
33318,-5.07,-0.85,-1.4,98.47
33338,-20.32,3.6,1.59,98.47
33358,-20.32,3.6,1.59,98.47
33378,-20.32,3.6,1.59,100.37
33398,-20.32,3.6,1.59,100.37
33417,3.66,4.15,-0.98,102.5
33437,3.66,4.15,-0.98,102.5
33457,3.66,4.15,-0.98,102.5
33477,2.32,2.2,-3.48,102.5
33497,2.32,2.2,-3.48,102.5
33517,2.32,2.2,-3.48,102.5
33537,2.32,2.2,-3.48,94.11
33557,9.52,0.06,-10.99,94.11
33577,9.52,0.06,-10.99,99.36
33598,9.52,0.06,-10.99,99.36
33618,3.97,0.37,-5.98,99.36
33637,3.97,0.37,-5.98,101.77
33657,3.97,0.37,-5.98,101.77
33677,0,1.4,-5.61,101.77
33698,0,1.4,-5.61,100.06
33718,0,1.4,-5.61,100.06
33737,0,1.4,-5.61,100.06
33759,8.91,-1.77,-10.86,100.06
33778,8.91,-1.77,-10.86,100.06
33798,8.91,-1.77,-10.86,98.92
33817,-4.7,3.78,-9.7,98.92
33837,-4.7,3.78,-9.7,98.92
33857,-4.7,3.78,-9.7,96.85
33877,3.36,0.85,-13,96.85
33897,3.36,0.85,-13,102.99
33918,3.36,0.85,-13,102.99
33938,3.36,0.85,-13,102.99
33957,-11.6,4.09,-11.47,103.68
33977,-11.6,4.09,-11.47,103.68
33997,-11.6,4.09,-11.47,103.68
34017,4.09,-3.11,-3.66,103.68
34037,4.09,-3.11,-3.66,103.68
34057,4.09,-3.11,-3.66,103.68
34078,5,3.36,15.81,102.49
34098,5,3.36,15.81,102.49
34117,5,3.36,15.81,101.12
34137,5,3.36,15.81,101.12
34157,14.4,1.16,14.89,101.12
34177,14.4,1.16,14.89,98.95
34197,14.4,1.16,14.89,98.95
34218,-5.61,-0.24,18.74,98.27
34238,-5.61,-0.24,18.74,98.27
34257,-5.61,-0.24,18.74,98.27
34278,2.26,4.52,5.49,98.27
34297,2.26,4.52,5.49,98.27
34318,2.26,4.52,5.49,98.27
34339,2.26,4.52,5.49,96.37
34358,-0.98,3.54,6.16,96.37
34378,-0.98,3.54,6.16,96.37
34397,-0.98,3.54,6.16,97.65
34417,-17.58,-0.43,6.65,97.65
34437,-17.58,-0.43,6.65,98.47
34457,-17.58,-0.43,6.65,98.47
34478,8.18,-1.22,2.56,98.47
34497,8.18,-1.22,2.56,100.62
34517,8.18,-1.22,2.56,100.62
34537,8.18,-1.22,2.56,100.62
34557,2.87,-1.59,-0.85,100.62
34577,2.87,-1.59,-0.85,100.62
34598,2.87,-1.59,-0.85,100.14
34618,4.88,-0.85,-11.66,100.14
34637,4.88,-0.85,-11.66,100.14
34657,4.88,-0.85,-11.66,97.47
34679,2.5,-1.46,-13.24,97.47
34698,2.5,-1.46,-13.24,99.86
34721,2.5,-1.46,-13.24,99.86
34737,2.5,-1.46,-13.24,99.86
34757,-10.68,-2.62,-16.17,99.86
34777,-10.68,-2.62,-16.17,99.69
34797,-10.68,-2.62,-16.17,99.69
34817,17.46,2.07,-19.59,99.69
34837,17.46,2.07,-19.59,99.69
34858,17.46,2.07,-19.59,99.69
34877,17.46,2.07,-19.59,98.49
34897,-17.76,-6.41,-17.21,98.49
34917,-17.76,-6.41,-17.21,99.79
34937,-17.76,-6.41,-17.21,99.79
34958,5.92,-1.1,-16.91,99.79
34977,5.92,-1.1,-16.91,99.43
34997,5.92,-1.1,-16.91,99.43
35017,-3.48,4.7,-0.79,99.43
35038,-3.48,4.7,-0.79,107.23
35058,-3.48,4.7,-0.79,107.23
35078,10.01,1.83,9.4,107.23
35098,10.01,1.83,9.4,107.23
35118,10.01,1.83,9.4,107.23
35137,10.01,1.83,9.4,102.04
35157,7.26,-1.4,12.02,102.04
35177,7.26,-1.4,12.02,102.04
35197,7.26,-1.4,12.02,100.24
35217,10.62,1.95,17.64,100.24
35237,10.62,1.95,17.64,99.29
35257,10.62,1.95,17.64,99.29
35277,10.62,1.95,17.64,99.29
35297,-32.17,-12.45,20.2,99.29
35317,-32.17,-12.45,20.2,99.29
35337,-32.17,-12.45,20.2,99.29
35358,-4.52,-0.85,1.89,102.57
35379,-4.52,-0.85,1.89,102.57
35398,-4.52,-0.85,1.89,99.83
35417,3.36,7.45,11.47,99.83
35437,3.36,7.45,11.47,99.83
35457,3.36,7.45,11.47,97.38
35477,3.36,7.45,11.47,97.38
35498,-2.01,3.97,5.43,97.38
35518,-2.01,3.97,5.43,99.04
35541,-2.01,3.97,5.43,99.04
35558,-2.01,3.97,5.43,99.04
35577,-2.01,3.97,5.43,99.04
35599,-2.01,3.97,5.43,99.04
35618,-2.01,3.97,5.43,99.04
35638,-2.01,3.97,5.43,99.04
35659,9.52,-1.53,-11.29,99.04
35678,9.52,-1.53,-11.29,99.04
35699,9.52,-1.53,-11.29,99.04
35718,9.52,-1.53,-11.29,99.04
35738,-3.42,-0.18,-12.27,103.47
35759,-3.42,-0.18,-12.27,103.47
35777,-3.42,-0.18,-12.27,103.47
35797,-3.42,-0.18,-12.27,103.47
35817,-3.42,-0.18,-12.27,103.47
35838,-3.42,-0.18,-12.27,103.47
35857,-3.42,-0.18,-12.27,103.47
35877,-6.04,2.5,-11.29,106.36
35897,-6.04,2.5,-11.29,106.36
35918,-6.04,2.5,-11.29,106.36
35938,-6.04,2.5,-11.29,106.7
35957,-7.32,0.12,-9.09,106.7
35977,-7.32,0.12,-9.09,103.9
35998,-7.32,0.12,-9.09,103.9
36018,-1.22,3.6,-10.8,103.9
36039,-1.22,3.6,-10.8,103.9
36057,-0.18,-1.89,-13.85,103.9
36077,-0.18,-1.89,-13.85,103.8
36097,-0.18,-1.89,-13.85,103.8
36117,-0.18,-1.89,-13.85,103.8
36138,8.91,-4.09,-2.26,106.62
36159,8.91,-4.09,-2.26,106.62
36178,8.91,-4.09,-2.26,106.62
36197,8.91,-4.09,-2.26,105.88
36217,11.17,-5.86,6.65,105.88
36237,11.17,-5.86,6.65,104.32
36257,11.17,-5.86,6.65,104.32
36277,-3.36,9.89,10.74,104.32
36297,-3.36,9.89,10.74,104.32
36317,-3.36,9.89,10.74,104.32
36337,-17.82,-13.92,-1.34,104.32
36358,-17.82,-13.92,-1.34,107.05
36377,-17.82,-13.92,-1.34,107.05
36398,-15.69,-21.55,0.37,100.32
36417,-15.69,-21.55,0.37,100.32
36439,-15.69,-21.55,0.37,100.32
36457,-15.69,-21.55,0.37,102.99
36477,11.78,2.62,18.8,102.99
36497,11.78,2.62,18.8,102.99
36518,11.78,2.62,18.8,104.2
36537,11.78,2.62,18.8,104.2
36558,11.78,2.62,18.8,104.2
36577,0.73,-2.2,12.63,104.2
36597,0.73,-2.2,12.63,104.2
36617,2.87,-7.26,-3.48,102.56
36637,2.87,-7.26,-3.48,102.56
36658,2.87,-7.26,-3.48,102.56
36677,10.86,-0.79,-10.5,100.31
36698,10.86,-0.79,-10.5,100.31
36717,10.86,-0.79,-10.5,100.31
36738,10.86,-0.79,-10.5,102.75
36757,0.98,0.31,-10.68,102.75
36777,0.98,0.31,-10.68,102.75
36797,0.98,0.31,-10.68,100.38
36817,-7.93,8.91,-12.57,100.38
36837,-7.93,8.91,-12.57,100.38
36858,-7.93,8.91,-12.57,100.38
36877,19.29,-2.44,-6.53,100.38
36898,19.29,-2.44,-6.53,102.25
36917,19.29,-2.44,-6.53,102.25
36937,19.29,-2.44,-6.53,102.25
36958,-15.26,-1.46,-5.49,106.64
36977,-15.26,-1.46,-5.49,106.64
36997,-15.26,-1.46,-5.49,103.25
37017,10.68,5.74,-5.06,103.25
37038,10.68,5.74,-5.06,103.25
37058,10.68,5.74,-5.06,103.73
37078,10.68,5.74,-5.06,103.73
37097,-6.96,1.1,-5.06,103.73
37117,-6.96,1.1,-5.06,103.73
37137,4.94,5.61,0.67,103.73
37158,4.94,5.61,0.67,100.01
37177,4.94,5.61,0.67,100.01
37197,4.94,5.61,0.67,100.01
37217,8.61,5.8,8.24,103.55
37237,8.61,5.8,8.24,103.55
37257,8.61,5.8,8.24,102.94
37277,-2.01,-6.23,15.08,102.94
37298,-2.01,-6.23,15.08,102.94
37318,-2.01,-6.23,15.08,104.71
37338,-2.01,-6.23,15.08,104.71
37357,2.99,-1.89,15.01,104.71
37378,2.99,-1.89,15.01,104.71
37397,2.99,-1.89,15.01,104.71
37417,-11.17,-6.47,14.16,104.71
37438,-11.17,-6.47,14.16,103.8
37457,-11.17,-6.47,14.16,103.8
37477,6.84,3.42,8.18,100.03
37497,6.84,3.42,8.18,100.03
37518,6.84,3.42,8.18,100.03
37538,6.84,3.42,8.18,102.07
37558,3.85,3.42,12.45,102.07
37578,3.85,3.42,12.45,99.03
37597,3.85,3.42,12.45,99.03
37619,7.69,3.54,6.71,99.03
37637,7.69,3.54,6.71,99.03
37657,7.69,3.54,6.71,99.03
37678,1.4,6.35,9.4,99.03
37698,1.4,6.35,9.4,98.13
37717,1.4,6.35,9.4,98.13
37737,4.46,4.15,-1.04,99.26
37757,4.46,4.15,-1.04,99.26
37778,4.46,4.15,-1.04,99.26
37797,4.46,4.15,-1.04,97.81
37818,0.18,0.43,-4.15,97.81
37837,0.18,0.43,-4.15,97.81
37858,0.18,0.43,-4.15,97.81
37878,0.18,0.43,-4.15,97.81
37898,-7.57,5.61,-2.26,97.81
37917,-7.57,5.61,-2.26,96.92
37937,5.07,0.91,-7.02,96.92
37957,5.07,0.91,-7.02,94.54
37977,5.07,0.91,-7.02,94.54
37997,5.07,0.91,-7.02,94.54
38017,-1.89,4.27,-5.49,97.65
38038,-1.89,4.27,-5.49,97.65
38057,-1.89,4.27,-5.49,96.48
38078,0.73,5.43,-4.21,96.48
38097,0.73,5.43,-4.21,96.48
38118,0.73,5.43,-4.21,96.48
38138,0.73,5.43,-4.21,96.48
38158,0.18,2.44,-6.77,96.48
38177,0.18,2.44,-6.77,101.55
38197,0.18,2.44,-6.77,101.55
38217,-7.57,-3.17,-5.13,101.55
38238,-7.57,-3.17,-5.13,102.09
38258,-7.57,-3.17,-5.13,102.09
38277,2.87,0.67,0,102.09
38298,2.87,0.67,0,102.09
38317,2.87,0.67,0,102.09
38338,2.87,0.67,0,100.93
38357,3.11,0.55,12.94,100.93
38377,3.11,0.55,12.94,100.93
38398,3.11,0.55,12.94,100.93
38418,3.11,0.55,12.94,100.93
38437,-0.12,2.81,15.69,100.93
38458,-0.12,2.81,15.69,96.97
38477,-9.09,7.87,20.2,96.97
38497,-9.09,7.87,20.2,100.08
38517,-9.09,7.87,20.2,100.08
38537,-9.09,7.87,20.2,100.08
38557,-14.59,-8.91,-0.67,95.7
38578,-14.59,-8.91,-0.67,95.7
38597,-14.59,-8.91,-0.67,96.01
38618,-0.3,1.22,13.55,96.01
38638,-0.3,1.22,13.55,96.01
38658,-0.3,1.22,13.55,96.01
38677,-0.3,1.22,13.55,96.01
38697,-0.43,-0.31,15.87,96.01
38717,-0.43,-0.31,15.87,94.66
38737,-0.43,-0.31,15.87,94.66
38758,2.93,-15.44,10.32,94.66
38778,2.93,-15.44,10.32,93.36
38797,2.93,-15.44,10.32,93.36
38817,2.93,-15.44,10.32,93.36
38838,8.55,1.71,38.45,93.48
38858,8.55,1.71,38.45,93.48
38877,8.55,1.71,38.45,91.61
38897,14.95,17.82,78.92,91.61
38919,14.95,17.82,78.92,91.61
38938,14.95,17.82,78.92,91.61
38957,7.32,25.08,106.26,91.61
38978,7.32,25.08,106.26,88.08
38997,7.32,25.08,106.26,88.08
39018,20.63,62.74,166.5,88.08
39037,20.63,62.74,166.5,93.36
39058,20.63,62.74,166.5,93.36
39078,20.63,62.74,166.5,93.36
39097,32.41,89.54,202.33,93.48
39117,32.41,89.54,202.33,93.36
39137,32.41,89.54,202.33,93.36
39157,32.41,89.54,202.33,93.36
39177,12.7,116.88,232.3,93.48
39197,12.7,116.88,232.3,93.48
39218,12.7,116.88,232.3,91.61
39238,-14.28,91.61,240.84,91.61
39258,-14.28,91.61,240.84,91.61
39278,-21.06,82.4,260.38,91.61
39297,-21.06,82.4,260.38,91.61
39317,-21.06,82.4,260.38,88.08
39337,-21.06,82.4,260.38,88.08
39357,-11.35,89.78,269.16,88.08
39377,-11.35,89.78,269.16,91.61
39398,-11.35,89.78,269.16,296.94
39418,-22.77,63.9,217.96,296.94
39437,-22.77,63.9,217.96,296.94
39457,-22.77,63.9,217.96,296.94
39478,-22.77,63.9,217.96,296.94
39497,-13,60.49,192.63,296.94
39517,-13,60.49,192.63,296.94
39537,-13,60.49,192.63,296.94
39558,-38.21,29.72,162.35,296.94
39578,-38.21,29.72,162.35,296.94
39598,-38.21,29.72,162.35,296.25
39618,-23.99,28.63,128.24,296.25
39638,-23.99,28.63,128.24,297.35
39657,-23.99,28.63,128.24,297.35
39678,-23.99,28.63,128.24,297.35
39698,-11.29,2.68,57.5,297.35
39718,-11.29,2.68,57.5,303.72
39738,-11.29,2.68,57.5,303.72
39757,-11.29,2.68,57.5,303.72
39777,16.6,26.12,56.4,300.98
39799,16.6,26.12,56.4,300.98
39817,-4.76,-0.37,15.56,300.98
39838,-4.76,-0.37,15.56,301.43
39858,-4.76,-0.37,15.56,301.43
39877,-4.76,-0.37,15.56,301.43
39898,-1.65,5.07,-2.68,297.7
39918,-1.65,5.07,-2.68,297.7
39938,-1.65,5.07,-2.68,296.94
39957,-1.65,5.07,-2.68,296.94
39977,3.05,-0.06,-7.69,296.94
39998,3.05,-0.06,-7.69,296.94
40018,3.05,-0.06,-7.69,296.94
40037,-5.86,-8.73,-8.48,296.94
40057,-5.86,-8.73,-8.48,296.25
40078,-5.86,-8.73,-8.48,296.25
40098,-7.26,-4.88,0,297.35
40117,-7.26,-4.88,0,297.35
40137,-7.26,-4.88,0,297.35
40157,-7.26,-4.88,0,297.35
40178,4.7,-10.38,-16.78,299.23
40197,4.7,-10.38,-16.78,299.23
40218,4.7,-10.38,-16.78,299.23
40239,9.4,-4.52,-14.95,299.23
40257,9.4,-4.52,-14.95,299.23
40278,9.4,-4.52,-14.95,299.23
40299,-2.93,-8.3,-9.21,299.23
40317,-2.93,-8.3,-9.21,299.23
40339,-2.93,-8.3,-9.21,299.36
40357,-2.81,-10.5,-8.91,299.36
40378,-2.81,-10.5,-8.91,303.52
40397,-2.81,-10.5,-8.91,303.52
40417,-4.09,0.79,-2.44,301.31
40437,-4.09,0.79,-2.44,301.31
40458,-4.09,0.79,-2.44,301.31
40477,-4.09,0.79,-2.44,303.37
40498,9.52,2.62,-5,303.37
40518,9.52,2.62,-5,303.37
40538,9.52,2.62,-5,303.37
40558,9.52,2.62,-5,303.37
40578,-2.62,1.83,3.23,303.37
40598,-2.62,1.83,3.23,301.23
40618,-11.11,-1.1,6.9,301.23
40637,-11.11,-1.1,6.9,300.2
40657,-11.11,-1.1,6.9,300.2
40678,-11.11,-1.1,6.9,300.2
40698,12.76,0.55,-1.65,298.38
40717,12.76,0.55,-1.65,298.38
40737,12.76,0.55,-1.65,298.38
40757,12.76,0.55,-1.65,299.57
40777,0.73,5.37,4.7,299.57
40797,0.73,5.37,4.7,299.57
40819,0.73,5.37,4.7,299.57
40838,10.13,11.17,4.33,299.57
40857,10.13,11.17,4.33,302.28
40878,10.13,11.17,4.33,302.28
40898,1.16,1.77,2.2,302.28
40917,1.16,1.77,2.2,300.9
40938,1.16,1.77,2.2,300.9
40957,1.59,-0.43,-0.06,300.9
40977,1.59,-0.43,-0.06,300.9
40998,1.59,-0.43,-0.06,300.9
41018,1.59,-0.43,-0.06,298.9
41037,-2.38,1.04,1.71,298.9
41058,-2.38,1.04,1.71,298.9
41079,-2.38,1.04,1.71,298.9
41097,-1.4,-0.98,-0.55,298.9
41118,-1.4,-0.98,-0.55,300.53
41138,-1.4,-0.98,-0.55,300.53
41157,0,-1.4,-2.5,300.53
41177,0,-1.4,-2.5,301.27
41198,0,-1.4,-2.5,301.27
41218,0,-1.4,-2.5,301.27
41242,-1.53,-0.61,1.4,299.32
41257,-1.53,-0.61,1.4,299.32
41277,-1.53,-0.61,1.4,303.04
41297,-1.59,-0.98,4.88,303.04
41317,-1.59,-0.98,4.88,303.04
41337,-1.59,-0.98,4.88,303.04
41357,-1.59,-0.98,4.88,303.04
41378,-1.65,-1.46,-0.24,303.04
41397,-1.65,-1.46,-0.24,300.64
41417,-1.16,-1.04,-2.75,300.64
41438,-1.16,-1.04,-2.75,300.28
41457,-1.16,-1.04,-2.75,300.28
41478,-1.16,-1.04,-2.75,300.28
41497,-0.49,-0.92,2.5,298.89
41517,-0.49,-0.92,2.5,298.89
41538,-0.49,-0.92,2.5,298.89
41557,-0.49,-0.92,2.5,294.73
41577,-3.6,-0.06,-0.73,294.73
41597,-3.6,-0.06,-0.73,294.73
41617,-3.6,-0.06,-0.73,294.73
41638,-6.9,-7.38,-7.63,294.73
41658,-6.9,-7.38,-7.63,301.18
41677,-6.9,-7.38,-7.63,301.18
41697,0.24,-0.12,-5.61,301.18
41717,0.24,-0.12,-5.61,295.53
41737,0.24,-0.12,-5.61,295.53
41757,-0.79,0.61,0.37,298.72
41777,-0.79,0.61,0.37,298.72
41798,-0.79,0.61,0.37,298.72
41818,-0.79,0.61,0.37,297.71
41837,6.84,0.31,-1.22,297.71
41858,6.84,0.31,-1.22,297.71
41877,6.84,0.31,-1.22,297.71
41897,6.84,0.31,-1.22,297.71
41917,-2.01,-0.73,2.69,297.71
41938,-2.01,-0.73,2.69,299.42
41957,0.06,-1.89,-0.31,299.42
41980,0.06,-1.89,-0.31,301.41
41998,0.06,-1.89,-0.31,301.41
42018,0.06,-1.89,-0.31,301.41
42037,0.79,1.22,5.07,301.91
42058,0.79,1.22,5.07,301.91
42078,0.79,1.22,5.07,300.08
42099,4.21,5.31,3.72,300.08
42117,4.21,5.31,3.72,300.08
42137,4.21,5.31,3.72,300.08
42157,4.21,5.31,3.72,300.08
42177,0,1.53,5.98,300.08
42197,0,1.53,5.98,296.66
42217,0,1.53,5.98,296.66
42237,0.49,0.98,1.77,299.72
42257,0.49,0.98,1.77,299.72
42278,0.49,0.98,1.77,299.72
42299,-0.06,1.04,1.83,299.17
42317,-0.06,1.04,1.83,299.17
42337,-0.06,1.04,1.83,299.17
42359,-0.06,1.04,1.83,298.77
42377,-0.79,-2.26,1.34,298.77
42398,-0.79,-2.26,1.34,298.77
42417,-0.79,-2.26,1.34,298.77
42437,-0.85,-1.71,0.43,298.77
42458,-0.85,-1.71,0.43,298.36
42483,-0.85,-1.71,0.43,298.36
42497,0.24,0.31,1.4,298.36
42517,0.24,0.31,1.4,298.33
42538,0.24,0.31,1.4,298.33
42558,0.67,2.01,-0.18,297.07
42578,0.67,2.01,-0.18,297.07
42597,0.67,2.01,-0.18,297.07
42619,0.67,2.01,-0.18,298.25
42637,-3.3,3.78,1.53,298.25
42658,-3.3,3.78,1.53,298.25
42678,-3.3,3.78,1.53,298.25
42697,-3.3,3.78,1.53,298.25
42717,0.85,2.99,2.99,298.25
42737,0.85,2.99,2.99,299.28
42758,2.14,1.28,-0.43,299.28
42778,2.14,1.28,-0.43,297.91
42798,2.14,1.28,-0.43,297.91
42817,2.14,1.28,-0.43,297.91
42837,-1.46,0.73,-1.34,298.44
42858,-1.46,0.73,-1.34,298.44
42878,-1.46,0.73,-1.34,298.44
42897,-1.46,0.73,-1.34,300.47
42918,5.55,-0.67,-1.52,300.47
42937,5.55,-0.67,-1.52,300.47
42958,5.55,-0.67,-1.52,300.47
42978,0.06,-0.06,-7.99,300.47
42997,0.06,-0.06,-7.99,299.73
43018,0.06,-0.06,-7.99,299.73
43038,7.69,9.4,-1.77,299.73
43057,7.69,9.4,-1.77,302.47
43077,7.69,9.4,-1.77,302.47
43097,-28.01,-7.2,-4.88,296.5
43117,-28.01,-7.2,-4.88,296.5
43137,-28.01,-7.2,-4.88,296.5
43157,-28.01,-7.2,-4.88,296.5
43177,-8.91,-7.63,-13.91,296.5
43198,-8.91,-7.63,-13.91,296.5
43217,-8.91,-7.63,-13.91,301.11
43237,11.72,1.83,-0.98,301.11
43257,11.72,1.83,-0.98,301.2
43277,11.72,1.83,-0.98,301.2
43298,5.25,0.67,7.81,301.2
43318,5.25,0.67,7.81,302.22
43340,5.25,0.67,7.81,302.22
43358,5.25,0.67,7.81,302.22
43378,-2.07,0.31,-1.71,300.76
43397,-2.07,0.31,-1.71,300.76
43417,-2.07,0.31,-1.71,300.76
43438,1.16,-1.83,6.84,300.76
43457,1.16,-1.83,6.84,300.76
43477,1.16,-1.83,6.84,299.63
43498,1.16,-1.83,6.84,299.63
43518,1.1,6.47,11.6,299.63
43538,1.1,6.47,11.6,300.2
43558,1.65,-4.15,0.06,300.2
43578,1.65,-4.15,0.06,297.91
43597,1.65,-4.15,0.06,297.91
43617,1.65,-4.15,0.06,297.91
43637,-19.77,0.49,8.42,301.66
43657,-19.77,0.49,8.42,301.66
43677,-19.77,0.49,8.42,301.66
43698,-19.77,0.49,8.42,301.66
43717,10.01,3.84,0.31,301.66
43737,10.01,3.84,0.31,301.66
43758,10.01,3.84,0.31,301.83
43780,0.55,-3.66,0.49,301.83
43798,0.55,-3.66,0.49,299.96
43817,0.55,-3.66,0.49,299.96
43838,3.36,0.49,-3.91,299.96
43859,3.36,0.49,-3.91,302.74
43877,3.36,0.49,-3.91,302.74
43898,20.2,13.61,-3.6,302.74
43917,20.2,13.61,-3.6,296.55
43938,20.2,13.61,-3.6,296.55
43957,20.2,13.61,-3.6,296.55
43977,-10.56,-1.83,7.75,296.55
43997,-10.56,-1.83,7.75,296.55
44019,-10.56,-1.83,7.75,302.31
44037,-10.56,-1.83,7.75,302.31
44057,2.81,-4.52,-10.99,302.31
44077,2.81,-4.52,-10.99,300.31
44098,-11.96,-1.77,-13.18,300.31
44118,-11.96,-1.77,-13.18,299.9
44138,-11.96,-1.77,-13.18,299.9
44158,-11.96,-1.77,-13.18,299.9
44177,9.22,3.6,-5.13,303.01
44199,9.22,3.6,-5.13,303.01
44218,9.22,3.6,-5.13,303.01
44237,9.22,3.6,-5.13,303.01
44258,-5.07,4.39,-4.15,303.01
44277,-5.07,4.39,-4.15,303.15
44297,-5.07,4.39,-4.15,303.15
44317,3.91,-1.71,-2.26,303.15
44337,3.91,-1.71,-2.26,306.66
44359,16.85,-1.4,15.32,306.66
44377,16.85,-1.4,15.32,301.37
44397,16.85,-1.4,15.32,301.37
44417,16.85,-1.4,15.32,301.37
44437,9.34,-3.97,12.39,300.56
44458,9.34,-3.97,12.39,300.56
44477,9.34,-3.97,12.39,300.56
44497,9.34,-3.97,12.39,300.56
44517,-0.49,5.07,7.2,300.56
44537,-0.49,5.07,7.2,300.56
44557,-0.49,5.07,7.2,301.79
44577,-13.67,1.1,12.63,301.79
44597,-13.67,1.1,12.63,301.17
44617,-13.67,1.1,12.63,301.17
44637,0.37,-3.11,4.09,301.17
44657,0.37,-3.11,4.09,300.78
44677,0.37,-3.11,4.09,300.78
44698,0.37,-3.11,4.09,300.78
44717,10.74,0.43,2.87,303.82
44737,10.74,0.43,2.87,303.82
44758,10.74,0.43,2.87,303.82
44778,10.99,1.71,-1.04,303.82
44797,10.99,1.71,-1.04,303.82
44818,10.99,1.71,-1.04,302.84
44838,10.99,1.71,-1.04,302.84
44858,12.63,5.92,-9.7,302.84
44877,12.63,5.92,-9.7,300.48
44897,12.63,5.92,-9.7,300.48
44918,-11.96,5.74,4.76,300.48
44938,-11.96,5.74,4.76,298.57
44957,-11.96,5.74,4.76,298.57
44977,-5.8,-9.89,-18.98,303.06
44997,-5.8,-9.89,-18.98,303.06
45018,-5.8,-9.89,-18.98,303.06
45038,-5.8,-9.89,-18.98,303.06
45058,-14.77,-3.36,-13,303.06
45078,-14.77,-3.36,-13,303.18
45098,-14.77,-3.36,-13,303.18
45118,-3.78,5.25,-2.32,303.18
45138,-3.78,5.25,-2.32,302.3
45158,-3.78,5.25,-2.32,302.3
45177,-1.22,3.05,-3.05,302.3
45197,-1.22,3.05,-3.05,301.89
45220,-1.22,3.05,-3.05,301.89
45237,-6.9,0.37,5.37,301.45
45257,-6.9,0.37,5.37,301.45
45277,-6.9,0.37,5.37,301.45
45298,-6.9,0.37,5.37,301.45
45317,9.46,-2.56,9.95,301.45
45337,9.46,-2.56,9.95,301.45
45357,9.46,-2.56,9.95,305.9
45377,9.46,-2.56,9.95,305.9
45398,3.91,-5.62,12.39,304.07
45418,3.91,-5.62,12.39,304.07
45438,-0.18,4.88,4.33,304.07
45457,-0.18,4.88,4.33,301.48
45477,-0.18,4.88,4.33,301.48
45497,-0.18,4.88,4.33,301.48
45517,8.12,6.71,3.78,301.25
45537,8.12,6.71,3.78,301.25
45557,8.12,6.71,3.78,301.25
45577,8.12,6.71,3.78,301.25
45598,-28.32,-12.82,12.15,301.25
45618,-28.32,-12.82,12.15,301.33
45638,-28.32,-12.82,12.15,301.33
45658,12.08,-0.24,5.31,301.33
45678,12.08,-0.24,5.31,303.49
45698,0.85,-0.31,2.14,303.49
45718,0.85,-0.31,2.14,302.44
45738,0.85,-0.31,2.14,302.44
45757,0.85,-0.31,2.14,302.44
45777,8.48,-0.37,-12.63,303.74
45797,8.48,-0.37,-12.63,303.74
45817,8.48,-0.37,-12.63,303.74
45837,8.48,-0.37,-12.63,303.74
45857,8.85,11.23,-1.28,303.74
45878,8.85,11.23,-1.28,303.74
45898,8.85,11.23,-1.28,302.81
45918,4.21,-4.33,-0.85,302.81
45938,4.21,-4.33,-0.85,304.51
45958,4.21,-4.33,-0.85,304.51
45978,-3.17,-5.43,-17.27,304.51
45998,-3.17,-5.43,-17.27,304.51
46017,-3.17,-5.43,-17.27,302.45
46038,-15.81,0.24,-12.57,301.68
46057,-15.81,0.24,-12.57,301.68
46077,-15.81,0.24,-12.57,301.68
46097,-15.81,0.24,-12.57,301.68
46118,0.73,1.46,-8.73,301.68
46138,0.73,1.46,-8.73,301.68
46158,0.73,1.46,-8.73,304.61
46177,0.73,1.46,-8.73,304.61
46198,-2.44,1.65,1.1,303.27
46217,-2.44,1.65,1.1,303.27
46237,2.01,3.97,5.31,303.27
46258,2.01,3.97,5.31,305.85
46277,2.01,3.97,5.31,305.85
46297,2.01,3.97,5.31,305.85
46317,8,-1.16,13.31,307.98
46337,8,-1.16,13.31,307.98
46358,8,-1.16,13.31,307.98
46377,8,-1.16,13.31,307.98
46397,11.11,-5.43,9.77,307.98
46417,11.11,-5.43,9.77,301.17
46437,11.11,-5.43,9.77,301.17
46457,6.04,5.31,10.07,301.17
46477,6.04,5.31,10.07,305.83
46497,6.04,5.31,10.07,305.83
46517,-0.61,9.4,5.13,305.83
46538,-0.61,9.4,5.13,304.51
46557,-0.61,9.4,5.13,304.51
46577,-7.93,-2.01,10.13,306.78
46599,-7.93,-2.01,10.13,306.78
46618,-7.93,-2.01,10.13,306.78
46638,-7.93,-2.01,10.13,306.78
46658,9.28,3.78,14.22,306.78
46677,9.28,3.78,14.22,306.78
46697,9.28,3.78,14.22,303.39
46717,9.28,3.78,14.22,303.39
46738,1.83,-4.76,4.64,297.1
46758,1.83,-4.76,4.64,297.1
46777,12.27,6.22,-11.47,297.1
46797,12.27,6.22,-11.47,298.91
46817,12.27,6.22,-11.47,298.91
46837,12.27,6.22,-11.47,298.91
46862,6.71,6.04,1.1,298.91
46878,6.71,6.04,1.1,298.91
46898,6.71,6.04,1.1,298.91
46918,-9.03,4.94,-4.15,298.91
46938,-9.03,4.94,-4.15,298.91
46957,-9.03,4.94,-4.15,300.67
46979,-9.03,4.94,-4.15,300.67
46998,-4.33,6.16,-12.21,300.67
47018,-4.33,6.16,-12.21,300.21
47039,-39.18,2.93,4.33,300.21
47058,-39.18,2.93,4.33,299.3
47077,-39.18,2.93,4.33,299.3
47097,-39.18,2.93,4.33,299.3
47118,-41.08,-33.08,6.65,305.22
47137,-41.08,-33.08,6.65,305.22
47162,-41.08,-33.08,6.65,305.22
47178,-41.08,-33.08,6.65,305.22
47198,-1.83,5.55,9.52,305.22
47218,-1.83,5.55,9.52,305.22
47238,-1.83,5.55,9.52,300.94
47257,6.29,0.98,13.73,300.94
47278,6.29,0.98,13.73,299.22
47298,6.29,0.98,13.73,299.22
47319,13.31,1.04,17.76,299.22
47338,13.31,1.04,17.76,300.27
47359,13.31,1.04,17.76,300.27
47377,13.31,1.04,17.76,300.27
47397,-6.83,-10.74,11.29,299.22
47417,-6.83,-10.74,11.29,299.22
47438,-6.83,-10.74,11.29,299.22
47458,-2.93,5.98,12.39,299.22
47478,-2.93,5.98,12.39,299.22
47498,-2.93,5.98,12.39,299.57
47517,-2.93,5.98,12.39,299.57
47537,2.99,-4.46,-5.86,295.79
47558,2.99,-4.46,-5.86,295.79
47577,-6.77,2.32,-1.16,295.79
47599,-6.77,2.32,-1.16,296.55
47618,-6.77,2.32,-1.16,296.55
47638,-6.77,2.32,-1.16,296.55
47658,9.89,-2.56,-3.97,294.75
47677,9.89,-2.56,-3.97,294.75
47697,9.89,-2.56,-3.97,294.75
47717,9.89,-2.56,-3.97,294.75
47738,4.64,-5.55,-14.4,294.75
47757,4.64,-5.55,-14.4,297.35
47778,4.64,-5.55,-14.4,297.35
47798,10.25,23.8,-13.91,297.35
47818,10.25,23.8,-13.91,299.44
47838,10.25,23.8,-13.91,299.44
47858,3.85,33.81,-3.17,299.44
47877,3.85,33.81,-3.17,300.18
47898,3.85,33.81,-3.17,300.18
47918,4.7,25.02,-17.45,296.67
47938,4.7,25.02,-17.45,296.67
47957,4.7,25.02,-17.45,296.67
47977,4.7,25.02,-17.45,296.67
47997,5.92,17.58,-5.43,296.67
48017,5.92,17.58,-5.43,296.67
48037,5.92,17.58,-5.43,305.22
48057,4.15,3.3,5.43,305.22
48077,4.15,3.3,5.43,303.22
48097,4.15,3.3,5.43,303.22
48117,5.19,0.06,-3.3,303.22
48140,5.19,0.06,-3.3,304.4
48158,5.19,0.06,-3.3,304.4
48177,5.19,0.06,-3.3,304.4
48197,6.29,-2.44,-5.25,304.4
48217,6.29,-2.44,-5.25,304.4
48237,6.29,-2.44,-5.25,304.4
48258,6.29,-2.44,-5.25,309.4
48278,-1.1,0.73,2.32,309.4
48298,-1.1,0.73,2.32,303.79
48318,-1.1,0.73,2.32,303.79
48338,4.21,-1.89,3.6,303.79
48357,4.21,-1.89,3.6,306.91
48378,-0.85,-1.83,0.18,306.91
48398,-0.85,-1.83,0.18,306.92
48418,-0.85,-1.83,0.18,306.92
48437,-0.85,-1.83,0.18,306.92
48457,4.33,-3.48,-1.77,306.92
48479,4.33,-3.48,-1.77,306.92
48497,4.33,-3.48,-1.77,306.92
48517,4.33,-3.48,-1.77,303.9
48537,-4.52,-5.92,1.89,303.9
48558,-4.52,-5.92,1.89,304.68
48578,-4.52,-5.92,1.89,304.68
48597,-6.59,-4.64,2.14,304.68
48619,-6.59,-4.64,2.14,304.79
48638,-6.59,-4.64,2.14,304.79
48657,2.38,5.8,3.85,304.79
48678,2.38,5.8,3.85,307.95
48698,2.38,5.8,3.85,307.95
48717,3.66,6.59,0.18,307.95
48737,3.66,6.59,0.18,307.95
48757,3.66,6.59,0.18,307.95
48778,3.66,6.59,0.18,302.94
48797,1.16,4.64,0.31,302.94
48817,1.16,4.64,0.31,302.94
48837,1.16,4.64,0.31,305.27
48857,1.16,4.64,0.31,305.27
48877,1.16,4.64,0.31,305.27
48897,7.14,10.25,0.37,307.55
48918,2.14,1.83,-3.6,307.55
48937,2.14,1.83,-3.6,305.54
48958,2.14,1.83,-3.6,305.54
48978,2.14,1.83,-3.6,305.54
48997,4.88,0.91,-2.62,305.54
49018,4.88,0.91,-2.62,305.54
49038,4.88,0.91,-2.62,305.54
49058,5.31,1.53,-2.01,306.22
49078,5.31,1.53,-2.01,306.22
49098,5.31,1.53,-2.01,308.83
49118,5.31,1.53,-2.01,308.83
49138,1.16,-0.43,1.28,308.83
49158,1.16,-0.43,1.28,304.84
49179,1.16,-0.43,1.28,304.84
49197,6.71,6.41,2.5,304.84
49218,6.71,6.41,2.5,306.04
49238,6.71,6.41,2.5,306.04
49259,4.88,-1.71,-1.22,306.04
49277,4.88,-1.71,-1.22,306.04
49297,4.88,-1.71,-1.22,306.04
49317,4.88,-1.71,-1.22,304.71
49337,12.51,23.93,-1.59,304.71
49358,12.51,23.93,-1.59,302.08
49378,12.51,23.93,-1.59,302.08
